elapsed time sensors,current,voltage,acc x (IMU),acc y (IMU),W (IMU),vel encoder,safety_value,throttle,steering,vicon time,vicon x,vicon y,vicon yaw
0.0,0.0,0.0,0.0,0.0,0.0,0.0,0.0,0.0,0.0,1725890951.5350237,0.09347164860650321,2.1773280908259482,-0.0603840537984072
30.387067794799805,0.0,0.0,-0.2800000011920929,0.27000001072883606,0.001090830541215837,0.0,0.0,0.0,-0.27231577038764954,1725890951.5447965,0.09346974860007991,2.1773323811518734,-0.06058281880261056
30.387067794799805,0.0,0.0,-0.2800000011920929,0.27000001072883606,0.001090830541215837,0.0,0.0,0.0,-0.27231577038764954,1725890951.5549283,0.09347044798587109,2.1773347161952747,-0.06048663657768462
30.387067794799805,0.0,0.0,-0.2800000011920929,0.27000001072883606,0.001090830541215837,0.0,0.0,0.0,-0.27231577038764954,1725890951.5646894,0.09347829839733562,2.177326314761502,-0.06042643204871571
30.387067794799805,0.0,0.0,-0.2800000011920929,0.27000001072883606,0.001090830541215837,0.0,0.0,0.0,-0.27231577038764954,1725890951.5747323,0.09347577412524902,2.1773291032381996,-0.06051977145137376
30.387067794799805,0.0,0.0,-0.2800000011920929,0.27000001072883606,0.001090830541215837,0.0,0.0,0.0,-0.27231577038764954,1725890951.5847793,0.09347512018873845,2.1773341648941984,-0.060486059107491344
30.387067794799805,0.0,0.0,-0.2800000011920929,0.27000001072883606,0.001090830541215837,0.0,0.0,0.0,-0.27231577038764954,1725890951.5949247,0.09347172015773948,2.177330741733728,-0.06053280762277899
30.387067794799805,0.0,0.0,-0.2800000011920929,0.27000001072883606,0.001090830541215837,0.0,0.0,0.0,-0.27231577038764954,1725890951.6048431,0.09348051980381847,2.177334731483123,-0.06038612585950522
30.387067794799805,0.0,0.0,-0.2800000011920929,0.27000001072883606,0.001090830541215837,0.0,0.0,0.0,-0.27231577038764954,1725890951.614923,0.09346741332551373,2.177328379149841,-0.060585330662128074
30.387067794799805,0.0,0.0,-0.2800000011920929,0.27000001072883606,0.001090830541215837,0.0,0.0,0.0,-0.27231577038764954,1725890951.6247997,0.09347683709383989,2.177320041423353,-0.06050268595865676
30.387067794799805,0.0,0.0,-0.2800000011920929,0.27000001072883606,0.001090830541215837,0.0,0.0,0.0,-0.27231577038764954,1725890951.6352623,0.0934740130570746,2.1773298556257874,-0.060445642832339365
30.485841751098633,0.0,0.0,-0.4000000059604645,0.20999999344348907,-0.001090830541215837,0.0,0.0,0.0,-0.27231577038764954,1725890951.645161,0.09347372427460916,2.177338281123764,-0.06042845070952025
30.485841751098633,0.0,0.0,-0.4000000059604645,0.20999999344348907,-0.001090830541215837,0.0,0.0,0.0,-0.27231577038764954,1725890951.654888,0.09347916509848292,2.1773280077515182,-0.06062467244096201
30.485841751098633,0.0,0.0,-0.4000000059604645,0.20999999344348907,-0.001090830541215837,0.0,0.0,0.0,-0.27231577038764954,1725890951.6648068,0.09346282715450059,2.177341116352332,-0.06032280721197271
30.485841751098633,0.0,0.0,-0.4000000059604645,0.20999999344348907,-0.001090830541215837,0.0,0.0,0.0,-0.27231577038764954,1725890951.6747406,0.0934769112433982,2.1773337212273236,-0.06047695444003381
30.485841751098633,0.0,0.0,-0.4000000059604645,0.20999999344348907,-0.001090830541215837,0.0,0.0,0.0,-0.27231577038764954,1725890951.684714,0.09346378825545791,2.177334694806022,-0.06044449747843065
30.485841751098633,0.0,0.0,-0.4000000059604645,0.20999999344348907,-0.001090830541215837,0.0,0.0,0.0,-0.27231577038764954,1725890951.6957688,0.09346577080190245,2.1773247421557973,-0.060442845267654435
30.485841751098633,0.0,0.0,-0.4000000059604645,0.20999999344348907,-0.001090830541215837,0.0,0.0,0.0,-0.27231577038764954,1725890951.7049112,0.0934775104485469,2.1773354444631146,-0.06034526050594978
30.485841751098633,0.0,0.0,-0.4000000059604645,0.20999999344348907,-0.001090830541215837,0.0,0.0,0.0,-0.27231577038764954,1725890951.7149136,0.09347429615069694,2.177327716624327,-0.06047986971015182
30.485841751098633,0.0,0.0,-0.4000000059604645,0.20999999344348907,-0.001090830541215837,0.0,0.0,0.0,-0.27231577038764954,1725890951.7248201,0.0934915080610756,2.177326618412057,-0.06048962607764308
30.485841751098633,0.0,0.0,-0.4000000059604645,0.20999999344348907,-0.001090830541215837,0.0,0.0,0.0,-0.27231577038764954,1725890951.7348866,0.09348187019038258,2.177327160201813,-0.060501338358304055
30.586103439331055,0.0,0.0,-0.38999998569488525,0.23000000417232513,0.0,0.0,0.0,0.0,-0.27231577038764954,1725890951.7450576,0.09347742025448298,2.177328043113633,-0.060622968364377854
30.586103439331055,0.0,0.0,-0.38999998569488525,0.23000000417232513,0.0,0.0,0.0,0.0,-0.27231577038764954,1725890951.754875,0.09346220688514924,2.177317998386804,-0.06032199140049006
30.586103439331055,0.0,0.0,-0.38999998569488525,0.23000000417232513,0.0,0.0,0.0,0.0,-0.27231577038764954,1725890951.76475,0.09346992456856633,2.177330014594637,-0.06037609894910074
30.586103439331055,0.0,0.0,-0.38999998569488525,0.23000000417232513,0.0,0.0,0.0,0.0,-0.27231577038764954,1725890951.774678,0.09346268228352177,2.1773225344154254,-0.06027933356029516
30.586103439331055,0.0,0.0,-0.38999998569488525,0.23000000417232513,0.0,0.0,0.0,0.0,-0.27231577038764954,1725890951.784894,0.09346636077643035,2.177329705078631,-0.060543604270087904
30.586103439331055,0.0,0.0,-0.38999998569488525,0.23000000417232513,0.0,0.0,0.0,0.0,-0.27231577038764954,1725890951.7950008,0.09348160012859885,2.1773167006581597,-0.06053676625767448
30.586103439331055,0.0,0.0,-0.38999998569488525,0.23000000417232513,0.0,0.0,0.0,0.0,-0.27231577038764954,1725890951.805027,0.09346988717901553,2.1773291192731192,-0.060506487089997715
30.586103439331055,0.0,0.0,-0.38999998569488525,0.23000000417232513,0.0,0.0,0.0,0.0,-0.27231577038764954,1725890951.8148718,0.09347119917199899,2.1773302135017563,-0.06056061178733734
30.586103439331055,0.0,0.0,-0.38999998569488525,0.23000000417232513,0.0,0.0,0.0,0.0,-0.27231577038764954,1725890951.8248835,0.09347996236212269,2.1773261025599226,-0.060624892327106376
30.586103439331055,0.0,0.0,-0.38999998569488525,0.23000000417232513,0.0,0.0,0.0,0.0,-0.27231577038764954,1725890951.8354013,0.09348049623197466,2.177333736354538,-0.060362625108548035
30.686664581298828,0.0,0.0,-0.36000001430511475,0.20999999344348907,0.0,0.0,0.0,0.0,-0.27231577038764954,1725890951.8451715,0.09347880706883019,2.17732850731549,-0.06042580512447373
30.686664581298828,0.0,0.0,-0.36000001430511475,0.20999999344348907,0.0,0.0,0.0,0.0,-0.27231577038764954,1725890951.8552065,0.09347509023487907,2.1773333873956204,-0.0605076211718397
30.686664581298828,0.0,0.0,-0.36000001430511475,0.20999999344348907,0.0,0.0,0.0,0.0,-0.27231577038764954,1725890951.8647933,0.093466817634633,2.17732583463178,-0.06043759549976943
30.686664581298828,0.0,0.0,-0.36000001430511475,0.20999999344348907,0.0,0.0,0.0,0.0,-0.27231577038764954,1725890951.8748221,0.09348224362617949,2.177332042511878,-0.060530338999886836
30.686664581298828,0.0,0.0,-0.36000001430511475,0.20999999344348907,0.0,0.0,0.0,0.0,-0.27231577038764954,1725890951.8847961,0.09346506897426539,2.1773336833986114,-0.06043461250727796
30.686664581298828,0.0,0.0,-0.36000001430511475,0.20999999344348907,0.0,0.0,0.0,0.0,-0.27231577038764954,1725890951.894914,0.09347793930622739,2.1773425639833595,-0.06035915475423487
30.686664581298828,0.0,0.0,-0.36000001430511475,0.20999999344348907,0.0,0.0,0.0,0.0,-0.27231577038764954,1725890951.9044044,0.09347822053285224,2.1773312937444618,-0.06052082580490907
30.686664581298828,0.0,0.0,-0.36000001430511475,0.20999999344348907,0.0,0.0,0.0,0.0,-0.27231577038764954,1725890951.9144359,0.09346930747081553,2.1773339831981344,-0.060504616237889525
30.686664581298828,0.0,0.0,-0.36000001430511475,0.20999999344348907,0.0,0.0,0.0,0.0,-0.27231577038764954,1725890951.92469,0.09348353479958248,2.1773110344238633,-0.06049779219651778
30.686664581298828,0.0,0.0,-0.36000001430511475,0.20999999344348907,0.0,0.0,0.0,0.0,-0.27231577038764954,1725890951.93503,0.09348681144335638,2.17732041529982,-0.06058785992402992
30.78607749938965,0.0,0.0,-0.23000000417232513,0.2800000011920929,-0.0032724919728934765,0.0,0.0,0.0,-0.27231577038764954,1725890951.9450557,0.09348283402629913,2.1773305221383836,-0.060530093943733175
30.78607749938965,0.0,0.0,-0.23000000417232513,0.2800000011920929,-0.0032724919728934765,0.0,0.0,0.0,-0.27231577038764954,1725890951.9549556,0.09346855638135951,2.1773185268612694,-0.06054380251145651
30.78607749938965,0.0,0.0,-0.23000000417232513,0.2800000011920929,-0.0032724919728934765,0.0,0.0,0.0,-0.27231577038764954,1725890951.9649181,0.09347085133272462,2.177326700183175,-0.060406717469924404
30.78607749938965,0.0,0.0,-0.23000000417232513,0.2800000011920929,-0.0032724919728934765,0.0,0.0,0.0,-0.27231577038764954,1725890951.974818,0.09346206029040506,2.177317687249604,-0.0603359584361081
30.78607749938965,0.0,0.0,-0.23000000417232513,0.2800000011920929,-0.0032724919728934765,0.0,0.0,0.0,-0.27231577038764954,1725890951.9848638,0.09346499876716728,2.177326030740429,-0.06038372204212088
30.78607749938965,0.0,0.0,-0.23000000417232513,0.2800000011920929,-0.0032724919728934765,0.0,0.0,0.0,-0.27231577038764954,1725890951.9949453,0.0934864401563876,2.1773308198098107,-0.060369622146686196
30.78607749938965,0.0,0.0,-0.23000000417232513,0.2800000011920929,-0.0032724919728934765,0.0,0.0,0.0,-0.27231577038764954,1725890952.004869,0.09347007799386195,2.177315829878282,-0.06038153266372489
30.78607749938965,0.0,0.0,-0.23000000417232513,0.2800000011920929,-0.0032724919728934765,0.0,0.0,0.0,-0.27231577038764954,1725890952.0148478,0.09348740931580125,2.177325867960222,-0.060598713285734504
30.78607749938965,0.0,0.0,-0.23000000417232513,0.2800000011920929,-0.0032724919728934765,0.0,0.0,0.0,-0.27231577038764954,1725890952.0249882,0.09348836114890764,2.1773263350505903,-0.06046062606541735
30.78607749938965,0.0,0.0,-0.23000000417232513,0.2800000011920929,-0.0032724919728934765,0.0,0.0,0.0,-0.27231577038764954,1725890952.0352967,0.09347929534829318,2.1773330310020373,-0.060400042776796815
30.884878158569336,0.0,0.0,-0.30000001192092896,0.23999999463558197,-0.0032724919728934765,0.0,0.0,0.0,-0.27231577038764954,1725890952.0452855,0.09348146428056489,2.1773172983192968,-0.060480819725655874
30.884878158569336,0.0,0.0,-0.30000001192092896,0.23999999463558197,-0.0032724919728934765,0.0,0.0,0.0,-0.27231577038764954,1725890952.0547004,0.09347791419708508,2.1773265587737183,-0.06037113011001432
30.884878158569336,0.0,0.0,-0.30000001192092896,0.23999999463558197,-0.0032724919728934765,0.0,0.0,0.0,-0.27231577038764954,1725890952.064524,0.09346492001549081,2.177336835066952,-0.06054901323888966
30.884878158569336,0.0,0.0,-0.30000001192092896,0.23999999463558197,-0.0032724919728934765,0.0,0.0,0.0,-0.27231577038764954,1725890952.0743935,0.0934741763547431,2.177328622878972,-0.060541732895568835
30.884878158569336,0.0,0.0,-0.30000001192092896,0.23999999463558197,-0.0032724919728934765,0.0,0.0,0.0,-0.27231577038764954,1725890952.084491,0.09347468478946505,2.177326077986584,-0.06051215127919732
30.884878158569336,0.0,0.0,-0.30000001192092896,0.23999999463558197,-0.0032724919728934765,0.0,0.0,0.0,-0.27231577038764954,1725890952.0949707,0.09348856765195707,2.1773263365092417,-0.06054979297685447
30.884878158569336,0.0,0.0,-0.30000001192092896,0.23999999463558197,-0.0032724919728934765,0.0,0.0,0.0,-0.27231577038764954,1725890952.1045034,0.09348380763796811,2.177333290326817,-0.0603782817344959
30.884878158569336,0.0,0.0,-0.30000001192092896,0.23999999463558197,-0.0032724919728934765,0.0,0.0,0.0,-0.27231577038764954,1725890952.1149466,0.09347412636402785,2.1773221905695257,-0.06030544798482087
30.884878158569336,0.0,0.0,-0.30000001192092896,0.23999999463558197,-0.0032724919728934765,0.0,0.0,0.0,-0.27231577038764954,1725890952.124663,0.09348158235953165,2.1773403484498663,-0.06067816657367804
30.884878158569336,0.0,0.0,-0.30000001192092896,0.23999999463558197,-0.0032724919728934765,0.0,0.0,0.0,-0.27231577038764954,1725890952.1352499,0.09347636566988561,2.177325566272248,-0.06051851938922587
30.983766555786133,0.0,0.0,-0.41999998688697815,0.20999999344348907,0.001090830541215837,0.0,0.0,0.0,-0.27231577038764954,1725890952.1452425,0.09347474504869506,2.177327982397413,-0.06060115669255594
30.983766555786133,0.0,0.0,-0.41999998688697815,0.20999999344348907,0.001090830541215837,0.0,0.0,0.0,-0.27231577038764954,1725890952.1553485,0.09347261207602689,2.1773293637506512,-0.06032504125946791
30.983766555786133,0.0,0.0,-0.41999998688697815,0.20999999344348907,0.001090830541215837,0.0,0.0,0.0,-0.27231577038764954,1725890952.165106,0.09348213326669083,2.1773247214711815,-0.060459502234006784
30.983766555786133,0.0,0.0,-0.41999998688697815,0.20999999344348907,0.001090830541215837,0.0,0.0,0.0,-0.27231577038764954,1725890952.1751475,0.0934804832506621,2.177323218262605,-0.06047867418403709
30.983766555786133,0.0,0.0,-0.41999998688697815,0.20999999344348907,0.001090830541215837,0.0,0.0,0.0,-0.27231577038764954,1725890952.184925,0.09346038394820456,2.1773360950078,-0.060661341494756736
30.983766555786133,0.0,0.0,-0.41999998688697815,0.20999999344348907,0.001090830541215837,0.0,0.0,0.0,-0.27231577038764954,1725890952.1950364,0.09345257859054401,2.1773244864786,-0.060353907876023315
30.983766555786133,0.0,0.0,-0.41999998688697815,0.20999999344348907,0.001090830541215837,0.0,0.0,0.0,-0.27231577038764954,1725890952.204857,0.09346482813341202,2.1773294783476502,-0.06033470560198491
30.983766555786133,0.0,0.0,-0.41999998688697815,0.20999999344348907,0.001090830541215837,0.0,0.0,0.0,-0.27231577038764954,1725890952.21478,0.09347507515443695,2.177328710152804,-0.06061838051279265
30.983766555786133,0.0,0.0,-0.41999998688697815,0.20999999344348907,0.001090830541215837,0.0,0.0,0.0,-0.27231577038764954,1725890952.2247655,0.09347490652282597,2.1773389379666015,-0.0602787855803879
30.983766555786133,0.0,0.0,-0.41999998688697815,0.20999999344348907,0.001090830541215837,0.0,0.0,0.0,-0.27231577038764954,1725890952.2349882,0.09349195336125296,2.177335997192253,-0.06063774900128182
31.082820892333984,0.0,0.0,-0.4300000071525574,0.23000000417232513,0.001090830541215837,0.0,0.0,0.0,-0.27231577038764954,1725890952.2448492,0.09347032056331364,2.1773288454179354,-0.060349584573687005
31.082820892333984,0.0,0.0,-0.4300000071525574,0.23000000417232513,0.001090830541215837,0.0,0.0,0.0,-0.27231577038764954,1725890952.2548435,0.09347135197253538,2.1773321661234513,-0.06045660601174787
31.082820892333984,0.0,0.0,-0.4300000071525574,0.23000000417232513,0.001090830541215837,0.0,0.0,0.0,-0.27231577038764954,1725890952.264952,0.09348284786057104,2.177337045151873,-0.060532689036519344
31.082820892333984,0.0,0.0,-0.4300000071525574,0.23000000417232513,0.001090830541215837,0.0,0.0,0.0,-0.27231577038764954,1725890952.274783,0.09348122421342993,2.1773254944811633,-0.06027717247669204
31.082820892333984,0.0,0.0,-0.4300000071525574,0.23000000417232513,0.001090830541215837,0.0,0.0,0.0,-0.27231577038764954,1725890952.2848907,0.09346371623638815,2.1773363427736263,-0.06030706720169695
31.082820892333984,0.0,0.0,-0.4300000071525574,0.23000000417232513,0.001090830541215837,0.0,0.0,0.0,-0.27231577038764954,1725890952.295587,0.09346734489969605,2.1773300406155425,-0.06060005801271945
31.082820892333984,0.0,0.0,-0.4300000071525574,0.23000000417232513,0.001090830541215837,0.0,0.0,0.0,-0.27231577038764954,1725890952.3058548,0.09346802486323075,2.1773299418372107,-0.06037695329707526
31.082820892333984,0.0,0.0,-0.4300000071525574,0.23000000417232513,0.001090830541215837,0.0,0.0,0.0,-0.27231577038764954,1725890952.3154593,0.09347323019305721,2.1773310009183575,-0.06035812554738011
31.082820892333984,0.0,0.0,-0.4300000071525574,0.23000000417232513,0.001090830541215837,0.0,0.0,0.0,-0.27231577038764954,1725890952.3258102,0.09346545900170924,2.177331292435646,-0.06033208270222955
31.082820892333984,0.0,0.0,-0.4300000071525574,0.23000000417232513,0.001090830541215837,0.0,0.0,0.0,-0.27231577038764954,1725890952.335245,0.09347872176687266,2.177328006348945,-0.060707112569135205
31.186471939086914,0.0,0.0,-0.33000001311302185,0.2199999988079071,-0.001090830541215837,0.0,0.0,0.0,-0.27231577038764954,1725890952.344518,0.09348688402660131,2.1773402200204606,-0.06046123088688433
31.186471939086914,0.0,0.0,-0.33000001311302185,0.2199999988079071,-0.001090830541215837,0.0,0.0,0.0,-0.27231577038764954,1725890952.354837,0.0934760328886719,2.177340646393907,-0.060410895779580864
31.186471939086914,0.0,0.0,-0.33000001311302185,0.2199999988079071,-0.001090830541215837,0.0,0.0,0.0,-0.27231577038764954,1725890952.3648956,0.09348206123851935,2.1773423265673264,-0.060349064979441536
31.186471939086914,0.0,0.0,-0.33000001311302185,0.2199999988079071,-0.001090830541215837,0.0,0.0,0.0,-0.27231577038764954,1725890952.3750541,0.09347998477578248,2.177343052200383,-0.060551808348714646
31.186471939086914,0.0,0.0,-0.33000001311302185,0.2199999988079071,-0.001090830541215837,0.0,0.0,0.0,-0.27231577038764954,1725890952.385171,0.09347504084123541,2.1773380473702755,-0.060304783599573135
31.186471939086914,0.0,0.0,-0.33000001311302185,0.2199999988079071,-0.001090830541215837,0.0,0.0,0.0,-0.27231577038764954,1725890952.3950381,0.09346710193442793,2.1773313483856036,-0.06028571931439914
31.186471939086914,0.0,0.0,-0.33000001311302185,0.2199999988079071,-0.001090830541215837,0.0,0.0,0.0,-0.27231577038764954,1725890952.4050345,0.0934721154927805,2.177332044920532,-0.06051486307845801
31.186471939086914,0.0,0.0,-0.33000001311302185,0.2199999988079071,-0.001090830541215837,0.0,0.0,0.0,-0.27231577038764954,1725890952.4150133,0.09347973823898921,2.177329475240683,-0.06048844568685975
31.186471939086914,0.0,0.0,-0.33000001311302185,0.2199999988079071,-0.001090830541215837,0.0,0.0,0.0,-0.27231577038764954,1725890952.4250946,0.09348996282500598,2.1773349038024734,-0.06048121571332217
31.186471939086914,0.0,0.0,-0.33000001311302185,0.2199999988079071,-0.001090830541215837,0.0,0.0,0.0,-0.27231577038764954,1725890952.4353974,0.09347698591908066,2.1773376145907863,-0.06038063610302078
31.28268814086914,0.0,0.0,-0.23000000417232513,0.2800000011920929,-0.001090830541215837,0.0,0.0,0.0,-0.27231577038764954,1725890952.4448824,0.09347824614754562,2.177339429703224,-0.06048487631656673
31.28268814086914,0.0,0.0,-0.23000000417232513,0.2800000011920929,-0.001090830541215837,0.0,0.0,0.0,-0.27231577038764954,1725890952.4549148,0.09346163692296815,2.1773250782967466,-0.06035333675944925
31.28268814086914,0.0,0.0,-0.23000000417232513,0.2800000011920929,-0.001090830541215837,0.0,0.0,0.0,-0.27231577038764954,1725890952.464975,0.09346370174214656,2.177325313755894,-0.060369861257073644
31.28268814086914,0.0,0.0,-0.23000000417232513,0.2800000011920929,-0.001090830541215837,0.0,0.0,0.0,-0.27231577038764954,1725890952.4754634,0.0934775454218692,2.1773142003919497,-0.06038287972185366
31.28268814086914,0.0,0.0,-0.23000000417232513,0.2800000011920929,-0.001090830541215837,0.0,0.0,0.0,-0.27231577038764954,1725890952.4848635,0.09347817308044838,2.177337863730662,-0.060452966845288975
31.28268814086914,0.0,0.0,-0.23000000417232513,0.2800000011920929,-0.001090830541215837,0.0,0.0,0.0,-0.27231577038764954,1725890952.495107,0.09349038255747275,2.1773339012343325,-0.06056253328825442
31.28268814086914,0.0,0.0,-0.23000000417232513,0.2800000011920929,-0.001090830541215837,0.0,0.0,0.0,-0.27231577038764954,1725890952.505031,0.09349407731211878,2.177331088560123,-0.06047044981044517
31.28268814086914,0.0,0.0,-0.23000000417232513,0.2800000011920929,-0.001090830541215837,0.0,0.0,0.0,-0.27231577038764954,1725890952.5148408,0.09347268621619015,2.17734007169331,-0.060575201966441616
31.28268814086914,0.0,0.0,-0.23000000417232513,0.2800000011920929,-0.001090830541215837,0.0,0.0,0.0,-0.27231577038764954,1725890952.5253663,0.09347832494726273,2.1773363572880093,-0.06039265444630855
31.28268814086914,0.0,0.0,-0.23000000417232513,0.2800000011920929,-0.001090830541215837,0.0,0.0,0.0,-0.27231577038764954,1725890952.535467,0.09347319803004808,2.1773177265729085,-0.06053456848979546
31.382963180541992,0.0,0.0,-0.36000001430511475,0.23000000417232513,-0.001090830541215837,0.0,0.0,0.0,-0.27231577038764954,1725890952.545224,0.09347788245845476,2.17731687031047,-0.06037131212456591
31.382963180541992,0.0,0.0,-0.36000001430511475,0.23000000417232513,-0.001090830541215837,0.0,0.0,0.0,-0.27231577038764954,1725890952.5547144,0.09348559754144706,2.1773186683024757,-0.06054643942087347
31.382963180541992,0.0,0.0,-0.36000001430511475,0.23000000417232513,-0.001090830541215837,0.0,0.0,0.0,-0.27231577038764954,1725890952.5645292,0.09349063207409222,2.177323625789432,-0.060350634556778235
31.382963180541992,0.0,0.0,-0.36000001430511475,0.23000000417232513,-0.001090830541215837,0.0,0.0,0.0,-0.27231577038764954,1725890952.5749269,0.09348308823971199,2.1773299407651177,-0.06050818237903644
31.382963180541992,0.0,0.0,-0.36000001430511475,0.23000000417232513,-0.001090830541215837,0.0,0.0,0.0,-0.27231577038764954,1725890952.584704,0.09346845197293979,2.1773403056883147,-0.060366870709510446
31.382963180541992,0.0,0.0,-0.36000001430511475,0.23000000417232513,-0.001090830541215837,0.0,0.0,0.0,-0.27231577038764954,1725890952.5949864,0.09347099094599846,2.177328915245085,-0.06050830739310294
31.382963180541992,0.0,0.0,-0.36000001430511475,0.23000000417232513,-0.001090830541215837,0.0,0.0,0.0,-0.27231577038764954,1725890952.6050735,0.09348275901219043,2.1773238729040867,-0.0603040741444741
31.382963180541992,0.0,0.0,-0.36000001430511475,0.23000000417232513,-0.001090830541215837,0.0,0.0,0.0,-0.27231577038764954,1725890952.6148822,0.09346811203659079,2.1773225304866908,-0.060508268515129734
31.382963180541992,0.0,0.0,-0.36000001430511475,0.23000000417232513,-0.001090830541215837,0.0,0.0,0.0,-0.27231577038764954,1725890952.6249416,0.09347287368471224,2.1773342130822395,-0.06043926537152232
31.382963180541992,0.0,0.0,-0.36000001430511475,0.23000000417232513,-0.001090830541215837,0.0,0.0,0.0,-0.27231577038764954,1725890952.6350183,0.09348399132598996,2.1773345008552063,-0.06049690151062344
31.48343849182129,0.0,0.0,-0.4099999964237213,0.20000000298023224,0.0,0.0,0.0,0.0,-0.27231577038764954,1725890952.6452563,0.09348139141270592,2.177315056702742,-0.06057421410525606
31.48343849182129,0.0,0.0,-0.4099999964237213,0.20000000298023224,0.0,0.0,0.0,0.0,-0.27231577038764954,1725890952.655041,0.0934693806982612,2.1773379471339855,-0.06040466282800768
31.48343849182129,0.0,0.0,-0.4099999964237213,0.20000000298023224,0.0,0.0,0.0,0.0,-0.27231577038764954,1725890952.6645942,0.0934762223685379,2.177324376366742,-0.0605869000073353
31.48343849182129,0.0,0.0,-0.4099999964237213,0.20000000298023224,0.0,0.0,0.0,0.0,-0.27231577038764954,1725890952.6749837,0.09347612384390547,2.177326843269728,-0.06039270085619913
31.48343849182129,0.0,0.0,-0.4099999964237213,0.20000000298023224,0.0,0.0,0.0,0.0,-0.27231577038764954,1725890952.6851184,0.09348272875820685,2.1773214860809946,-0.06040057435696456
31.48343849182129,0.0,0.0,-0.4099999964237213,0.20000000298023224,0.0,0.0,0.0,0.0,-0.27231577038764954,1725890952.6949742,0.09348633755541567,2.177332951830457,-0.060577804954739564
31.48343849182129,0.0,0.0,-0.4099999964237213,0.20000000298023224,0.0,0.0,0.0,0.0,-0.27231577038764954,1725890952.7050483,0.09349459297757845,2.177344469335679,-0.06046728149860749
31.48343849182129,0.0,0.0,-0.4099999964237213,0.20000000298023224,0.0,0.0,0.0,0.0,-0.27231577038764954,1725890952.7149627,0.09349295914813247,2.177333072712259,-0.06045580690656647
31.48343849182129,0.0,0.0,-0.4099999964237213,0.20000000298023224,0.0,0.0,0.0,0.0,-0.27231577038764954,1725890952.7250006,0.09348202613522084,2.1773321098840834,-0.060444039600763846
31.48343849182129,0.0,0.0,-0.4099999964237213,0.20000000298023224,0.0,0.0,0.0,0.0,-0.27231577038764954,1725890952.7353024,0.09346635961323554,2.1773251186543505,-0.06048273977445588
31.584293365478516,0.0,0.0,-0.4399999976158142,0.20999999344348907,-0.001090830541215837,0.0,0.0,0.0,-0.27231577038764954,1725890952.7446406,0.09347076342978283,2.177328054268709,-0.06032725130738735
31.584293365478516,0.0,0.0,-0.4399999976158142,0.20999999344348907,-0.001090830541215837,0.0,0.0,0.0,-0.27231577038764954,1725890952.7551086,0.09347812270477038,2.177328658402553,-0.060474598689103536
31.584293365478516,0.0,0.0,-0.4399999976158142,0.20999999344348907,-0.001090830541215837,0.0,0.0,0.0,-0.27231577038764954,1725890952.764891,0.09348113946868415,2.177331170376548,-0.06038788272327863
31.584293365478516,0.0,0.0,-0.4399999976158142,0.20999999344348907,-0.001090830541215837,0.0,0.0,0.0,-0.27231577038764954,1725890952.7749035,0.09348493672246364,2.1773296762770706,-0.06056522277494508
31.584293365478516,0.0,0.0,-0.4399999976158142,0.20999999344348907,-0.001090830541215837,0.0,0.0,0.0,-0.27231577038764954,1725890952.7847228,0.09347928520181022,2.177332068765839,-0.06044661107250296
31.584293365478516,0.0,0.0,-0.4399999976158142,0.20999999344348907,-0.001090830541215837,0.0,0.0,0.0,-0.27231577038764954,1725890952.7950983,0.09347955218460939,2.177344231200982,-0.06041705823113722
31.584293365478516,0.0,0.0,-0.4399999976158142,0.20999999344348907,-0.001090830541215837,0.0,0.0,0.0,-0.27231577038764954,1725890952.8048835,0.0934797628243878,2.1773288276950824,-0.060334119767910116
31.584293365478516,0.0,0.0,-0.4399999976158142,0.20999999344348907,-0.001090830541215837,0.0,0.0,0.0,-0.27231577038764954,1725890952.8148303,0.09347979401713397,2.1773500535293335,-0.06042390938122576
31.584293365478516,0.0,0.0,-0.4399999976158142,0.20999999344348907,-0.001090830541215837,0.0,0.0,0.0,-0.27231577038764954,1725890952.824985,0.09349214141228401,2.1773357390069843,-0.060416084933909237
31.584293365478516,0.0,0.0,-0.4399999976158142,0.20999999344348907,-0.001090830541215837,0.0,0.0,0.0,-0.27231577038764954,1725890952.8349597,0.09348413137254248,2.1773399676582392,-0.060327946210137096
31.683494567871094,0.0,0.0,-0.25999999046325684,0.23999999463558197,-0.0032724919728934765,0.0,0.0,0.0,-0.27231577038764954,1725890952.8453772,0.09348470722492257,2.177331777160396,-0.060653190739698985
31.683494567871094,0.0,0.0,-0.25999999046325684,0.23999999463558197,-0.0032724919728934765,0.0,0.0,0.0,-0.27231577038764954,1725890952.8549807,0.09348149371513621,2.177327985090661,-0.06065097285688696
31.683494567871094,0.0,0.0,-0.25999999046325684,0.23999999463558197,-0.0032724919728934765,0.0,0.0,0.0,-0.27231577038764954,1725890952.864833,0.09348770662780514,2.177333437039016,-0.06051188364732667
31.683494567871094,0.0,0.0,-0.25999999046325684,0.23999999463558197,-0.0032724919728934765,0.0,0.0,0.0,-0.27231577038764954,1725890952.8749752,0.09346874313708439,2.1773320826851985,-0.060368363694700854
31.683494567871094,0.0,0.0,-0.25999999046325684,0.23999999463558197,-0.0032724919728934765,0.0,0.0,0.0,-0.27231577038764954,1725890952.8850522,0.09347350430931409,2.177337617149576,-0.0604742392302698
31.683494567871094,0.0,0.0,-0.25999999046325684,0.23999999463558197,-0.0032724919728934765,0.0,0.0,0.0,-0.27231577038764954,1725890952.8950448,0.09347721633483427,2.1773333501429977,-0.060541580294733166
31.683494567871094,0.0,0.0,-0.25999999046325684,0.23999999463558197,-0.0032724919728934765,0.0,0.0,0.0,-0.27231577038764954,1725890952.904993,0.09346829434052456,2.1773411093530024,-0.060492890135280586
31.683494567871094,0.0,0.0,-0.25999999046325684,0.23999999463558197,-0.0032724919728934765,0.0,0.0,0.0,-0.27231577038764954,1725890952.9149787,0.09346717045626274,2.17733696256402,-0.06051171426401451
31.683494567871094,0.0,0.0,-0.25999999046325684,0.23999999463558197,-0.0032724919728934765,0.0,0.0,0.0,-0.27231577038764954,1725890952.924906,0.0934567633188643,2.1773271046113445,-0.06047534129707693
31.683494567871094,0.0,0.0,-0.25999999046325684,0.23999999463558197,-0.0032724919728934765,0.0,0.0,0.0,-0.27231577038764954,1725890952.9349012,0.09346025473236681,2.1773336344230314,-0.06042933010515994
31.782896041870117,0.0,0.0,-0.23999999463558197,0.2800000011920929,-0.001090830541215837,0.0,1.0,0.0,-0.27231577038764954,1725890952.9454863,0.09346707327658654,2.1773297669282536,-0.060563624579955594
31.782896041870117,0.0,0.0,-0.23999999463558197,0.2800000011920929,-0.001090830541215837,0.0,1.0,0.0,-0.27231577038764954,1725890952.9545634,0.09346692039148356,2.17734222592725,-0.06042503217483753
31.782896041870117,0.0,0.0,-0.23999999463558197,0.2800000011920929,-0.001090830541215837,0.0,1.0,0.0,-0.27231577038764954,1725890952.9651823,0.09347995830912176,2.1773331639094025,-0.06060967082155334
31.782896041870117,0.0,0.0,-0.23999999463558197,0.2800000011920929,-0.001090830541215837,0.0,1.0,0.0,-0.27231577038764954,1725890952.9750335,0.09348162376740475,2.1773311148793995,-0.06044508951355839
31.782896041870117,0.0,0.0,-0.23999999463558197,0.2800000011920929,-0.001090830541215837,0.0,1.0,0.0,-0.27231577038764954,1725890952.984867,0.09347712376868968,2.177337671064745,-0.06046692365477242
31.782896041870117,0.0,0.0,-0.23999999463558197,0.2800000011920929,-0.001090830541215837,0.0,1.0,0.0,-0.27231577038764954,1725890952.9949899,0.09347626866303141,2.1773234026600194,-0.06066500133901457
31.782896041870117,0.0,0.0,-0.23999999463558197,0.2800000011920929,-0.001090830541215837,0.0,1.0,0.0,-0.27231577038764954,1725890953.00497,0.09345385260888092,2.1773305461303303,-0.06032688624886925
31.782896041870117,0.0,0.0,-0.23999999463558197,0.2800000011920929,-0.001090830541215837,0.0,1.0,0.0,-0.27231577038764954,1725890953.0148945,0.09347291323963343,2.1773282520971318,-0.06071808240377795
31.782896041870117,0.0,0.0,-0.23999999463558197,0.2800000011920929,-0.001090830541215837,0.0,1.0,0.0,-0.27231577038764954,1725890953.0249894,0.09346398825936852,2.177326225700235,-0.06042931560026111
31.782896041870117,0.0,0.0,-0.23999999463558197,0.2800000011920929,-0.001090830541215837,0.0,1.0,0.0,-0.27231577038764954,1725890953.0349214,0.0934881529732483,2.1773261470808696,-0.06043704245407416
31.882827758789062,0.0,0.0,-0.4000000059604645,0.2199999988079071,0.0032724919728934765,0.0,1.0,0.0,-0.27231577038764954,1725890953.0453048,0.093483400372254,2.177323491630307,-0.06050296603033219
31.882827758789062,0.0,0.0,-0.4000000059604645,0.2199999988079071,0.0032724919728934765,0.0,1.0,0.0,-0.27231577038764954,1725890953.0549414,0.09348013512191876,2.1773262472417514,-0.060469063809270154
31.882827758789062,0.0,0.0,-0.4000000059604645,0.2199999988079071,0.0032724919728934765,0.0,1.0,0.0,-0.27231577038764954,1725890953.0646057,0.09347718490491999,2.1773266810041956,-0.060507795218530884
31.882827758789062,0.0,0.0,-0.4000000059604645,0.2199999988079071,0.0032724919728934765,0.0,1.0,0.0,-0.27231577038764954,1725890953.0749364,0.0934737103394524,2.1773333325017337,-0.06052836244767518
31.882827758789062,0.0,0.0,-0.4000000059604645,0.2199999988079071,0.0032724919728934765,0.0,1.0,0.0,-0.27231577038764954,1725890953.0849357,0.09346789040961764,2.1773222188870966,-0.0603702650375667
31.882827758789062,0.0,0.0,-0.4000000059604645,0.2199999988079071,0.0032724919728934765,0.0,1.0,0.0,-0.27231577038764954,1725890953.094955,0.09345858453362027,2.1773300887693563,-0.060187889246586
31.882827758789062,0.0,0.0,-0.4000000059604645,0.2199999988079071,0.0032724919728934765,0.0,1.0,0.0,-0.27231577038764954,1725890953.104996,0.09348340182483018,2.1773291504048076,-0.06053114064843424
31.882827758789062,0.0,0.0,-0.4000000059604645,0.2199999988079071,0.0032724919728934765,0.0,1.0,0.0,-0.27231577038764954,1725890953.1150806,0.0934875391248119,2.1773259020757583,-0.060573109961235626
31.882827758789062,0.0,0.0,-0.4000000059604645,0.2199999988079071,0.0032724919728934765,0.0,1.0,0.0,-0.27231577038764954,1725890953.1249251,0.09348857110319704,2.177324489595238,-0.06050680677613554
31.882827758789062,0.0,0.0,-0.4000000059604645,0.2199999988079071,0.0032724919728934765,0.0,1.0,0.0,-0.27231577038764954,1725890953.1350176,0.09347445552473659,2.177340828758874,-0.06061417569302507
31.983848571777344,0.0,0.0,-0.36000001430511475,0.20000000298023224,-0.001090830541215837,0.0,1.0,0.0,-0.27231577038764954,1725890953.1454163,0.09346840892431676,2.177336651554635,-0.06039128078801202
31.983848571777344,0.0,0.0,-0.36000001430511475,0.20000000298023224,-0.001090830541215837,0.0,1.0,0.0,-0.27231577038764954,1725890953.1545472,0.09346892155819787,2.1773256154971805,-0.06056562817758888
31.983848571777344,0.0,0.0,-0.36000001430511475,0.20000000298023224,-0.001090830541215837,0.0,1.0,0.0,-0.27231577038764954,1725890953.1649683,0.09347155647966249,2.177319795861057,-0.06052512227771858
31.983848571777344,0.0,0.0,-0.36000001430511475,0.20000000298023224,-0.001090830541215837,0.0,1.0,0.0,-0.27231577038764954,1725890953.1746557,0.09348267015296172,2.177330232669588,-0.060484095424243864
31.983848571777344,0.0,0.0,-0.36000001430511475,0.20000000298023224,-0.001090830541215837,0.0,1.0,0.0,-0.27231577038764954,1725890953.1851182,0.09348004536816386,2.177316897894841,-0.06049984272452216
31.983848571777344,0.0,0.0,-0.36000001430511475,0.20000000298023224,-0.001090830541215837,0.0,1.0,0.0,-0.27231577038764954,1725890953.1950173,0.09348965735989945,2.177318866740351,-0.060565498323428474
31.983848571777344,0.0,0.0,-0.36000001430511475,0.20000000298023224,-0.001090830541215837,0.0,1.0,0.0,-0.27231577038764954,1725890953.2050087,0.09348644141659362,2.177320592537553,-0.060404284098224924
31.983848571777344,0.0,0.0,-0.36000001430511475,0.20000000298023224,-0.001090830541215837,0.0,1.0,0.0,-0.27231577038764954,1725890953.2148879,0.09348306247728777,2.1773284795912273,-0.06027993040798149
31.983848571777344,0.0,0.0,-0.36000001430511475,0.20000000298023224,-0.001090830541215837,0.0,1.0,0.0,-0.27231577038764954,1725890953.2248936,0.09347360912165449,2.1773360216461124,-0.06046528552407979
31.983848571777344,0.0,0.0,-0.36000001430511475,0.20000000298023224,-0.001090830541215837,0.0,1.0,0.0,-0.27231577038764954,1725890953.235032,0.09347414438791925,2.1773283663695118,-0.0605104676856137
32.08340072631836,0.0,0.0,-0.4000000059604645,0.1899999976158142,0.0,0.0,1.0,0.0,-0.27231577038764954,1725890953.2453802,0.09348055802960645,2.177333475236709,-0.060370392184413244
32.08340072631836,0.0,0.0,-0.4000000059604645,0.1899999976158142,0.0,0.0,1.0,0.0,-0.27231577038764954,1725890953.2549589,0.09347148263947412,2.177334950038948,-0.06054184736121169
32.08340072631836,0.0,0.0,-0.4000000059604645,0.1899999976158142,0.0,0.0,1.0,0.0,-0.27231577038764954,1725890953.2647307,0.09347463110302033,2.1773146778404233,-0.060397752441356735
32.08340072631836,0.0,0.0,-0.4000000059604645,0.1899999976158142,0.0,0.0,1.0,0.0,-0.27231577038764954,1725890953.2747781,0.09346689140608126,2.177325080569452,-0.060623040666869105
32.08340072631836,0.0,0.0,-0.4000000059604645,0.1899999976158142,0.0,0.0,1.0,0.0,-0.27231577038764954,1725890953.2849672,0.09347088344505622,2.1773271393316347,-0.060475957448926934
32.08340072631836,0.0,0.0,-0.4000000059604645,0.1899999976158142,0.0,0.0,1.0,0.0,-0.27231577038764954,1725890953.2947245,0.09346829706478563,2.177329861017502,-0.060419965309225776
32.08340072631836,0.0,0.0,-0.4000000059604645,0.1899999976158142,0.0,0.0,1.0,0.0,-0.27231577038764954,1725890953.30489,0.0934639477293437,2.177331947302421,-0.060534156360598244
32.08340072631836,0.0,0.0,-0.4000000059604645,0.1899999976158142,0.0,0.0,1.0,0.0,-0.27231577038764954,1725890953.3146064,0.09348058903006898,2.1773295895186853,-0.060560355168889315
32.08340072631836,0.0,0.0,-0.4000000059604645,0.1899999976158142,0.0,0.0,1.0,0.0,-0.27231577038764954,1725890953.3257973,0.0934730666492847,2.1773306644615165,-0.06055642986856033
32.08340072631836,0.0,0.0,-0.4000000059604645,0.1899999976158142,0.0,0.0,1.0,0.0,-0.27231577038764954,1725890953.3349357,0.09346943354534379,2.177336409206311,-0.06043927405803596
32.183128356933594,0.0,0.0,-0.25999999046325684,0.25999999046325684,0.002181661082431674,0.0,1.0,0.20000137388706207,-0.27231577038764954,1725890953.3455808,0.09347210471941433,2.177318635752292,-0.06046173320079
32.183128356933594,0.0,0.0,-0.25999999046325684,0.25999999046325684,0.002181661082431674,0.0,1.0,0.20000137388706207,-0.27231577038764954,1725890953.3547075,0.09347182959871075,2.1773231063796983,-0.060410651129587815
32.183128356933594,0.0,0.0,-0.25999999046325684,0.25999999046325684,0.002181661082431674,0.0,1.0,0.20000137388706207,-0.27231577038764954,1725890953.3649962,0.09347351259678299,2.177324234179453,-0.06053232602714516
32.183128356933594,0.0,0.0,-0.25999999046325684,0.25999999046325684,0.002181661082431674,0.0,1.0,0.20000137388706207,-0.27231577038764954,1725890953.374967,0.09347490589162769,2.177326645347104,-0.06048040587118558
32.183128356933594,0.0,0.0,-0.25999999046325684,0.25999999046325684,0.002181661082431674,0.0,1.0,0.20000137388706207,-0.27231577038764954,1725890953.3847916,0.09347791430218852,2.1773240511468286,-0.060610839626109816
32.183128356933594,0.0,0.0,-0.25999999046325684,0.25999999046325684,0.002181661082431674,0.0,1.0,0.20000137388706207,-0.27231577038764954,1725890953.394919,0.09347011944959405,2.1773258178959787,-0.06051409991864667
32.183128356933594,0.0,0.0,-0.25999999046325684,0.25999999046325684,0.002181661082431674,0.0,1.0,0.20000137388706207,-0.27231577038764954,1725890953.404945,0.09347645357506937,2.1773261943863775,-0.060647479614842736
32.183128356933594,0.0,0.0,-0.25999999046325684,0.25999999046325684,0.002181661082431674,0.0,1.0,0.20000137388706207,-0.27231577038764954,1725890953.4149516,0.09347271236140564,2.1773346366062447,-0.0604913832242055
32.183128356933594,0.0,0.0,-0.25999999046325684,0.25999999046325684,0.002181661082431674,0.0,1.0,0.20000137388706207,-0.27231577038764954,1725890953.4253244,0.09347566850246675,2.177337822804996,-0.06048523837731489
32.183128356933594,0.0,0.0,-0.25999999046325684,0.25999999046325684,0.002181661082431674,0.0,1.0,0.20000137388706207,-0.27231577038764954,1725890953.4349139,0.09346993482780941,2.177321163080671,-0.060338946085315204
32.28337860107422,0.0,0.0,-0.2199999988079071,0.30000001192092896,0.001090830541215837,0.0,1.0,0.2006348818540573,-0.27231577038764954,1725890953.4450448,0.09346976469160174,2.1773312735156374,-0.06046357914419537
32.28337860107422,0.0,0.0,-0.2199999988079071,0.30000001192092896,0.001090830541215837,0.0,1.0,0.2006348818540573,-0.27231577038764954,1725890953.454644,0.09347609676968512,2.17732526077234,-0.06042470923240825
32.28337860107422,0.0,0.0,-0.2199999988079071,0.30000001192092896,0.001090830541215837,0.0,1.0,0.2006348818540573,-0.27231577038764954,1725890953.464784,0.09347770909962298,2.177322858211297,-0.06076047053098415
32.28337860107422,0.0,0.0,-0.2199999988079071,0.30000001192092896,0.001090830541215837,0.0,1.0,0.2006348818540573,-0.27231577038764954,1725890953.4748125,0.09347941212200489,2.177319314924034,-0.06027732189088767
32.28337860107422,0.0,0.0,-0.2199999988079071,0.30000001192092896,0.001090830541215837,0.0,1.0,0.2006348818540573,-0.27231577038764954,1725890953.4848576,0.09348678439688675,2.177328047110159,-0.06063484811369008
32.28337860107422,0.0,0.0,-0.2199999988079071,0.30000001192092896,0.001090830541215837,0.0,1.0,0.2006348818540573,-0.27231577038764954,1725890953.4949412,0.09348871194053872,2.1773292111020073,-0.06037270029536366
32.28337860107422,0.0,0.0,-0.2199999988079071,0.30000001192092896,0.001090830541215837,0.0,1.0,0.2006348818540573,-0.27231577038764954,1725890953.5048501,0.09349131538815764,2.177329271649528,-0.06037049220358941
32.28337860107422,0.0,0.0,-0.2199999988079071,0.30000001192092896,0.001090830541215837,0.0,1.0,0.2006348818540573,-0.27231577038764954,1725890953.514883,0.09352862784363564,2.177348852613847,-0.06040745126146512
32.28337860107422,0.0,0.0,-0.2199999988079071,0.30000001192092896,0.001090830541215837,0.0,1.0,0.2006348818540573,-0.27231577038764954,1725890953.5249262,0.09372796070917196,2.177309359934633,-0.06066304625488231
32.28337860107422,0.0,0.0,-0.2199999988079071,0.30000001192092896,0.001090830541215837,0.0,1.0,0.2006348818540573,-0.27231577038764954,1725890953.5348146,0.09394630702915717,2.177283463395667,-0.06065508041872426
32.38190460205078,0.0,0.0,1.1699999570846558,0.27000001072883606,0.0032724919728934765,0.0,1.0,0.20126570761203766,-0.27231577038764954,1725890953.5447795,0.09406684121962851,2.1772933261115757,-0.06073405839082858
32.38190460205078,0.0,0.0,1.1699999570846558,0.27000001072883606,0.0032724919728934765,0.0,1.0,0.20126570761203766,-0.27231577038764954,1725890953.5545065,0.09423756162113747,2.177260956335621,-0.06077162926944377
32.38190460205078,0.0,0.0,1.1699999570846558,0.27000001072883606,0.0032724919728934765,0.0,1.0,0.20126570761203766,-0.27231577038764954,1725890953.5644655,0.09441139393936401,2.1772235725893414,-0.06082854899365862
32.38190460205078,0.0,0.0,1.1699999570846558,0.27000001072883606,0.0032724919728934765,0.0,1.0,0.20126570761203766,-0.27231577038764954,1725890953.5744357,0.09454124299565847,2.177227736071762,-0.06114974223913131
32.38190460205078,0.0,0.0,1.1699999570846558,0.27000001072883606,0.0032724919728934765,0.0,1.0,0.20126570761203766,-0.27231577038764954,1725890953.5847862,0.0946392019118751,2.1772201126988553,-0.06103545927936102
32.38190460205078,0.0,0.0,1.1699999570846558,0.27000001072883606,0.0032724919728934765,0.0,1.0,0.20126570761203766,-0.27231577038764954,1725890953.5945363,0.0947945218501565,2.1771928673134564,-0.06113118762399904
32.38190460205078,0.0,0.0,1.1699999570846558,0.27000001072883606,0.0032724919728934765,0.0,1.0,0.20126570761203766,-0.27231577038764954,1725890953.6044466,0.09488015331123147,2.1771924768904882,-0.06131915834650342
32.38190460205078,0.0,0.0,1.1699999570846558,0.27000001072883606,0.0032724919728934765,0.0,1.0,0.20126570761203766,-0.27231577038764954,1725890953.614394,0.09496646919292738,2.177184919892443,-0.06134535906029128
32.38190460205078,0.0,0.0,1.1699999570846558,0.27000001072883606,0.0032724919728934765,0.0,1.0,0.20126570761203766,-0.27231577038764954,1725890953.6244826,0.09503192566755865,2.17715746094792,-0.06145075279624287
32.38190460205078,0.0,0.0,1.1699999570846558,0.27000001072883606,0.0032724919728934765,0.0,1.0,0.20126570761203766,-0.27231577038764954,1725890953.6347284,0.09505233530430186,2.177160405842514,-0.06153726022191911
32.482093811035156,0.0,0.0,-0.7300000190734863,0.2199999988079071,-0.002181661082431674,0.041270799934864044,1.0,0.20187939703464508,-0.27231577038764954,1725890953.6446655,0.0950546252345858,2.1771754261923206,-0.06147988929820745
32.482093811035156,0.0,0.0,-0.7300000190734863,0.2199999988079071,-0.002181661082431674,0.041270799934864044,1.0,0.20187939703464508,-0.27231577038764954,1725890953.654574,0.09504296395081961,2.1771603276842044,-0.06149884141497248
32.482093811035156,0.0,0.0,-0.7300000190734863,0.2199999988079071,-0.002181661082431674,0.041270799934864044,1.0,0.20187939703464508,-0.27231577038764954,1725890953.6644275,0.09502429260495253,2.1772004956240845,-0.0614363614802806
32.482093811035156,0.0,0.0,-0.7300000190734863,0.2199999988079071,-0.002181661082431674,0.041270799934864044,1.0,0.20187939703464508,-0.27231577038764954,1725890953.6744878,0.0950236836866445,2.177168856531677,-0.0613958821294806
32.482093811035156,0.0,0.0,-0.7300000190734863,0.2199999988079071,-0.002181661082431674,0.041270799934864044,1.0,0.20187939703464508,-0.27231577038764954,1725890953.6843734,0.09503994130425138,2.1771710191881364,-0.06138109775960019
32.482093811035156,0.0,0.0,-0.7300000190734863,0.2199999988079071,-0.002181661082431674,0.041270799934864044,1.0,0.20187939703464508,-0.27231577038764954,1725890953.6946146,0.09505287747789262,2.177174305722513,-0.06132227448469101
32.482093811035156,0.0,0.0,-0.7300000190734863,0.2199999988079071,-0.002181661082431674,0.041270799934864044,1.0,0.20187939703464508,-0.27231577038764954,1725890953.7047231,0.09506478114830925,2.1771621811875086,-0.06144854634504196
32.482093811035156,0.0,0.0,-0.7300000190734863,0.2199999988079071,-0.002181661082431674,0.041270799934864044,1.0,0.20187939703464508,-0.27231577038764954,1725890953.714915,0.09505594771146758,2.1771638485369493,-0.06148331978959687
32.482093811035156,0.0,0.0,-0.7300000190734863,0.2199999988079071,-0.002181661082431674,0.041270799934864044,1.0,0.20187939703464508,-0.27231577038764954,1725890953.7248473,0.09506322789914225,2.177177212387129,-0.06158142906268183
32.482093811035156,0.0,0.0,-0.7300000190734863,0.2199999988079071,-0.002181661082431674,0.041270799934864044,1.0,0.20187939703464508,-0.27231577038764954,1725890953.735007,0.09506451765461638,2.1771714867378718,-0.061387278916132444
32.58323669433594,0.0,0.0,-0.4000000059604645,0.3199999928474426,0.0032724919728934765,0.0,1.0,0.20251396298408508,-0.27231577038764954,1725890953.745032,0.09506183216959492,2.1771779897618733,-0.06132167204807523
32.58323669433594,0.0,0.0,-0.4000000059604645,0.3199999928474426,0.0032724919728934765,0.0,1.0,0.20251396298408508,-0.27231577038764954,1725890953.7549837,0.09505950279788282,2.177153516386976,-0.061602381301637664
32.58323669433594,0.0,0.0,-0.4000000059604645,0.3199999928474426,0.0032724919728934765,0.0,1.0,0.20251396298408508,-0.27231577038764954,1725890953.7649086,0.0950605942768951,2.177165974263694,-0.061361208796527
32.58323669433594,0.0,0.0,-0.4000000059604645,0.3199999928474426,0.0032724919728934765,0.0,1.0,0.20251396298408508,-0.27231577038764954,1725890953.7748594,0.09506814784755589,2.1771669906588142,-0.06149064720328717
32.58323669433594,0.0,0.0,-0.4000000059604645,0.3199999928474426,0.0032724919728934765,0.0,1.0,0.20251396298408508,-0.27231577038764954,1725890953.7849362,0.09506122137756579,2.1771643032630523,-0.06134487719233394
32.58323669433594,0.0,0.0,-0.4000000059604645,0.3199999928474426,0.0032724919728934765,0.0,1.0,0.20251396298408508,-0.27231577038764954,1725890953.795173,0.09507333748186383,2.177166180505275,-0.06172324475169628
32.58323669433594,0.0,0.0,-0.4000000059604645,0.3199999928474426,0.0032724919728934765,0.0,1.0,0.20251396298408508,-0.27231577038764954,1725890953.8050954,0.0950560031409834,2.177169152608996,-0.06135379308411677
32.58323669433594,0.0,0.0,-0.4000000059604645,0.3199999928474426,0.0032724919728934765,0.0,1.0,0.20251396298408508,-0.27231577038764954,1725890953.8149598,0.09506323501398826,2.177170369226199,-0.06142676606720119
32.58323669433594,0.0,0.0,-0.4000000059604645,0.3199999928474426,0.0032724919728934765,0.0,1.0,0.20251396298408508,-0.27231577038764954,1725890953.8254442,0.09506299308876591,2.1771749970731498,-0.06133407681067997
32.58323669433594,0.0,0.0,-0.4000000059604645,0.3199999928474426,0.0032724919728934765,0.0,1.0,0.20251396298408508,-0.27231577038764954,1725890953.8351202,0.09507872633541828,2.1771766322016495,-0.061416832731664206
32.684906005859375,0.0,0.0,-0.4699999988079071,0.18000000715255737,0.002181661082431674,0.0,1.0,0.20314793288707733,-0.27231577038764954,1725890953.8448734,0.09507702822906963,2.1771706263695205,-0.06142157737006222
32.684906005859375,0.0,0.0,-0.4699999988079071,0.18000000715255737,0.002181661082431674,0.0,1.0,0.20314793288707733,-0.27231577038764954,1725890953.8548567,0.0950772343189097,2.1771737796823682,-0.061519313017336916
32.684906005859375,0.0,0.0,-0.4699999988079071,0.18000000715255737,0.002181661082431674,0.0,1.0,0.20314793288707733,-0.27231577038764954,1725890953.8648415,0.09509922690947084,2.177164561894436,-0.06149167814363924
32.684906005859375,0.0,0.0,-0.4699999988079071,0.18000000715255737,0.002181661082431674,0.0,1.0,0.20314793288707733,-0.27231577038764954,1725890953.8749197,0.09511001845641429,2.1771649082994307,-0.06138281979750152
32.684906005859375,0.0,0.0,-0.4699999988079071,0.18000000715255737,0.002181661082431674,0.0,1.0,0.20314793288707733,-0.27231577038764954,1725890953.8849232,0.09514598011207714,2.1771440734266503,-0.06146301635771672
32.684906005859375,0.0,0.0,-0.4699999988079071,0.18000000715255737,0.002181661082431674,0.0,1.0,0.20314793288707733,-0.27231577038764954,1725890953.8949375,0.09517624427002107,2.177147979174303,-0.06152539026026363
32.684906005859375,0.0,0.0,-0.4699999988079071,0.18000000715255737,0.002181661082431674,0.0,1.0,0.20314793288707733,-0.27231577038764954,1725890953.9049213,0.09521778696820028,2.1771419157379683,-0.06152517240637572
32.684906005859375,0.0,0.0,-0.4699999988079071,0.18000000715255737,0.002181661082431674,0.0,1.0,0.20314793288707733,-0.27231577038764954,1725890953.914915,0.09522657249877868,2.177155449435408,-0.06137056206539796
32.684906005859375,0.0,0.0,-0.4699999988079071,0.18000000715255737,0.002181661082431674,0.0,1.0,0.20314793288707733,-0.27231577038764954,1725890953.9255185,0.09524243180543797,2.177145255123195,-0.06165395281276706
32.684906005859375,0.0,0.0,-0.4699999988079071,0.18000000715255737,0.002181661082431674,0.0,1.0,0.20314793288707733,-0.27231577038764954,1725890953.9350336,0.09525968999952103,2.1771337902609846,-0.061552697266323564
32.78517150878906,0.0,0.0,-0.3400000035762787,0.2800000011920929,-0.002181661082431674,0.0,1.0,0.2038039267063141,-0.27231577038764954,1725890953.945115,0.095293005674219,2.1771473574943796,-0.06146428709753912
32.78517150878906,0.0,0.0,-0.3400000035762787,0.2800000011920929,-0.002181661082431674,0.0,1.0,0.2038039267063141,-0.27231577038764954,1725890953.9549143,0.09533126982669897,2.177133486690048,-0.061496141923877846
32.78517150878906,0.0,0.0,-0.3400000035762787,0.2800000011920929,-0.002181661082431674,0.0,1.0,0.2038039267063141,-0.27231577038764954,1725890953.9649494,0.09539790871212186,2.1771378034001097,-0.061476711402361724
32.78517150878906,0.0,0.0,-0.3400000035762787,0.2800000011920929,-0.002181661082431674,0.0,1.0,0.2038039267063141,-0.27231577038764954,1725890953.9749427,0.09548494634642507,2.1771266677209575,-0.06160992119019898
32.78517150878906,0.0,0.0,-0.3400000035762787,0.2800000011920929,-0.002181661082431674,0.0,1.0,0.2038039267063141,-0.27231577038764954,1725890953.9850183,0.0956418492805173,2.177121041786777,-0.06150797892271867
32.78517150878906,0.0,0.0,-0.3400000035762787,0.2800000011920929,-0.002181661082431674,0.0,1.0,0.2038039267063141,-0.27231577038764954,1725890953.9952722,0.0958547427822057,2.1770986084125594,-0.061539391589493106
32.78517150878906,0.0,0.0,-0.3400000035762787,0.2800000011920929,-0.002181661082431674,0.0,1.0,0.2038039267063141,-0.27231577038764954,1725890954.0055094,0.09616012221757647,2.1770545607485934,-0.06131616483243906
32.78517150878906,0.0,0.0,-0.3400000035762787,0.2800000011920929,-0.002181661082431674,0.0,1.0,0.2038039267063141,-0.27231577038764954,1725890954.0155513,0.09648443855813099,2.1770143743497496,-0.06123732584928451
32.78517150878906,0.0,0.0,-0.3400000035762787,0.2800000011920929,-0.002181661082431674,0.0,1.0,0.2038039267063141,-0.27231577038764954,1725890954.0253203,0.09677709313750112,2.1769831742123067,-0.06139356806128436
32.78517150878906,0.0,0.0,-0.3400000035762787,0.2800000011920929,-0.002181661082431674,0.0,1.0,0.2038039267063141,-0.27231577038764954,1725890954.0351827,0.0971351962847416,2.176968008283592,-0.06165271547024696
32.883487701416016,0.0,0.0,-0.36000001430511475,0.20999999344348907,-0.013089967891573906,0.0,1.0,0.2044665515422821,-0.27231577038764954,1725890954.0451534,0.09747930155368761,2.17694420992395,-0.06174432071630307
32.883487701416016,0.0,0.0,-0.36000001430511475,0.20999999344348907,-0.013089967891573906,0.0,1.0,0.2044665515422821,-0.27231577038764954,1725890954.0550177,0.09783269762848992,2.1769029279782255,-0.06191369787626944
32.883487701416016,0.0,0.0,-0.36000001430511475,0.20999999344348907,-0.013089967891573906,0.0,1.0,0.2044665515422821,-0.27231577038764954,1725890954.065014,0.09818423184815128,2.1768528947529107,-0.061913725716020246
32.883487701416016,0.0,0.0,-0.36000001430511475,0.20999999344348907,-0.013089967891573906,0.0,1.0,0.2044665515422821,-0.27231577038764954,1725890954.074882,0.09847521059057143,2.176833640359087,-0.06226188499356867
32.883487701416016,0.0,0.0,-0.36000001430511475,0.20999999344348907,-0.013089967891573906,0.0,1.0,0.2044665515422821,-0.27231577038764954,1725890954.0849152,0.09874071417463746,2.176802187864329,-0.06271841685550186
32.883487701416016,0.0,0.0,-0.36000001430511475,0.20999999344348907,-0.013089967891573906,0.0,1.0,0.2044665515422821,-0.27231577038764954,1725890954.0950418,0.09913174277629755,2.1767812120290286,-0.06287710167979145
32.883487701416016,0.0,0.0,-0.36000001430511475,0.20999999344348907,-0.013089967891573906,0.0,1.0,0.2044665515422821,-0.27231577038764954,1725890954.1058435,0.09955801360257222,2.1767727109381987,-0.0630796825406797
32.883487701416016,0.0,0.0,-0.36000001430511475,0.20999999344348907,-0.013089967891573906,0.0,1.0,0.2044665515422821,-0.27231577038764954,1725890954.1156528,0.0998885111519123,2.1767497857652844,-0.06316412169314366
32.883487701416016,0.0,0.0,-0.36000001430511475,0.20999999344348907,-0.013089967891573906,0.0,1.0,0.2044665515422821,-0.27231577038764954,1725890954.125475,0.10027459252257657,2.1766708086383475,-0.06338218476223305
32.883487701416016,0.0,0.0,-0.36000001430511475,0.20999999344348907,-0.013089967891573906,0.0,1.0,0.2044665515422821,-0.27231577038764954,1725890954.1354754,0.10067720793216452,2.1765884255248182,-0.06342203243169084
32.983489990234375,0.0,0.0,-1.2699999809265137,0.5799999833106995,0.0032724919728934765,0.041270799934864044,1.0,0.20508494973182678,-0.27231577038764954,1725890954.1451468,0.1010257131172946,2.1765551163263335,-0.0638843726020413
32.983489990234375,0.0,0.0,-1.2699999809265137,0.5799999833106995,0.0032724919728934765,0.041270799934864044,1.0,0.20508494973182678,-0.27231577038764954,1725890954.154919,0.10134899515973748,2.176544924037469,-0.06407075310712221
32.983489990234375,0.0,0.0,-1.2699999809265137,0.5799999833106995,0.0032724919728934765,0.041270799934864044,1.0,0.20508494973182678,-0.27231577038764954,1725890954.1645834,0.10180767787286303,2.1765144521734654,-0.06443183239927107
32.983489990234375,0.0,0.0,-1.2699999809265137,0.5799999833106995,0.0032724919728934765,0.041270799934864044,1.0,0.20508494973182678,-0.27231577038764954,1725890954.1747797,0.1023500880384459,2.1764776324843047,-0.06505442876624437
32.983489990234375,0.0,0.0,-1.2699999809265137,0.5799999833106995,0.0032724919728934765,0.041270799934864044,1.0,0.20508494973182678,-0.27231577038764954,1725890954.184895,0.10284574570155317,2.1764152161422374,-0.06568914973370786
32.983489990234375,0.0,0.0,-1.2699999809265137,0.5799999833106995,0.0032724919728934765,0.041270799934864044,1.0,0.20508494973182678,-0.27231577038764954,1725890954.1949368,0.10335972505856662,2.176324104128318,-0.06606329627925843
32.983489990234375,0.0,0.0,-1.2699999809265137,0.5799999833106995,0.0032724919728934765,0.041270799934864044,1.0,0.20508494973182678,-0.27231577038764954,1725890954.205503,0.10394554359724957,2.1762408704081313,-0.06612078893516479
32.983489990234375,0.0,0.0,-1.2699999809265137,0.5799999833106995,0.0032724919728934765,0.041270799934864044,1.0,0.20508494973182678,-0.27231577038764954,1725890954.215399,0.10441065171681335,2.1762434636547634,-0.06617686668211577
32.983489990234375,0.0,0.0,-1.2699999809265137,0.5799999833106995,0.0032724919728934765,0.041270799934864044,1.0,0.20508494973182678,-0.27231577038764954,1725890954.2257626,0.104945906202988,2.1761872996927214,-0.0662783608182847
32.983489990234375,0.0,0.0,-1.2699999809265137,0.5799999833106995,0.0032724919728934765,0.041270799934864044,1.0,0.20508494973182678,-0.27231577038764954,1725890954.235429,0.10557095284764892,2.176113295840547,-0.06676318660696595
33.084468841552734,0.0,0.0,-1.0499999523162842,0.46000000834465027,-0.034906577318906784,0.041270799934864044,1.0,0.20572327077388763,-0.27231577038764954,1725890954.2449234,0.10613154371236291,2.176059438338824,-0.06701059020826887
33.084468841552734,0.0,0.0,-1.0499999523162842,0.46000000834465027,-0.034906577318906784,0.041270799934864044,1.0,0.20572327077388763,-0.27231577038764954,1725890954.2550926,0.10663783921934755,2.175952090473535,-0.06698212170835303
33.084468841552734,0.0,0.0,-1.0499999523162842,0.46000000834465027,-0.034906577318906784,0.041270799934864044,1.0,0.20572327077388763,-0.27231577038764954,1725890954.2645903,0.10717972903438995,2.1758430729464724,-0.06790519878382321
33.084468841552734,0.0,0.0,-1.0499999523162842,0.46000000834465027,-0.034906577318906784,0.041270799934864044,1.0,0.20572327077388763,-0.27231577038764954,1725890954.2748458,0.1078626739114754,2.1757790530284074,-0.06874951482909547
33.084468841552734,0.0,0.0,-1.0499999523162842,0.46000000834465027,-0.034906577318906784,0.041270799934864044,1.0,0.20572327077388763,-0.27231577038764954,1725890954.2850049,0.1085456604704018,2.1757125825126002,-0.06930804682856745
33.084468841552734,0.0,0.0,-1.0499999523162842,0.46000000834465027,-0.034906577318906784,0.041270799934864044,1.0,0.20572327077388763,-0.27231577038764954,1725890954.2951035,0.10917400460352673,2.1756477879478093,-0.06960180019373843
33.084468841552734,0.0,0.0,-1.0499999523162842,0.46000000834465027,-0.034906577318906784,0.041270799934864044,1.0,0.20572327077388763,-0.27231577038764954,1725890954.3048704,0.10980245845098358,2.175538834654657,-0.06997835211986257
33.084468841552734,0.0,0.0,-1.0499999523162842,0.46000000834465027,-0.034906577318906784,0.041270799934864044,1.0,0.20572327077388763,-0.27231577038764954,1725890954.3148408,0.1104217197558918,2.1754920095707253,-0.06997633764076504
33.084468841552734,0.0,0.0,-1.0499999523162842,0.46000000834465027,-0.034906577318906784,0.041270799934864044,1.0,0.20572327077388763,-0.27231577038764954,1725890954.324953,0.1111414491417521,2.1754298244072445,-0.0705737324865809
33.084468841552734,0.0,0.0,-1.0499999523162842,0.46000000834465027,-0.034906577318906784,0.041270799934864044,1.0,0.20572327077388763,-0.27231577038764954,1725890954.334905,0.1118979571322846,2.1753661382813507,-0.07122456772027136
33.18238830566406,0.0,0.0,-0.38999998569488525,0.6700000166893005,-0.06326817721128464,0.08254159986972809,1.0,0.20635804533958435,-0.27231577038764954,1725890954.3450997,0.112576271580216,2.1753237500513456,-0.07156224894790067
33.18238830566406,0.0,0.0,-0.38999998569488525,0.6700000166893005,-0.06326817721128464,0.08254159986972809,1.0,0.20635804533958435,-0.27231577038764954,1725890954.3547673,0.1132715740726457,2.1752517970239356,-0.07150766616293144
33.18238830566406,0.0,0.0,-0.38999998569488525,0.6700000166893005,-0.06326817721128464,0.08254159986972809,1.0,0.20635804533958435,-0.27231577038764954,1725890954.3649166,0.1140838160219711,2.175178947154336,-0.07188205207295069
33.18238830566406,0.0,0.0,-0.38999998569488525,0.6700000166893005,-0.06326817721128464,0.08254159986972809,1.0,0.20635804533958435,-0.27231577038764954,1725890954.374927,0.11490868932565065,2.1751260643376416,-0.07236907181702439
33.18238830566406,0.0,0.0,-0.38999998569488525,0.6700000166893005,-0.06326817721128464,0.08254159986972809,1.0,0.20635804533958435,-0.27231577038764954,1725890954.385041,0.1156378595614136,2.1750023617514636,-0.07354281552655348
33.18238830566406,0.0,0.0,-0.38999998569488525,0.6700000166893005,-0.06326817721128464,0.08254159986972809,1.0,0.20635804533958435,-0.27231577038764954,1725890954.3949223,0.11635713421143916,2.1748529200202356,-0.07372938819669342
33.18238830566406,0.0,0.0,-0.38999998569488525,0.6700000166893005,-0.06326817721128464,0.08254159986972809,1.0,0.20635804533958435,-0.27231577038764954,1725890954.4048526,0.11708967181457139,2.174696226667021,-0.07477598164381513
33.18238830566406,0.0,0.0,-0.38999998569488525,0.6700000166893005,-0.06326817721128464,0.08254159986972809,1.0,0.20635804533958435,-0.27231577038764954,1725890954.4149075,0.11792563743484577,2.174566834947089,-0.07518472995773531
33.18238830566406,0.0,0.0,-0.38999998569488525,0.6700000166893005,-0.06326817721128464,0.08254159986972809,1.0,0.20635804533958435,-0.27231577038764954,1725890954.425028,0.11863831416584045,2.174482855464836,-0.07541702050324693
33.18238830566406,0.0,0.0,-0.38999998569488525,0.6700000166893005,-0.06326817721128464,0.08254159986972809,1.0,0.20635804533958435,-0.27231577038764954,1725890954.4350471,0.11934287314376704,2.1743556537150104,-0.07573831190175234
33.28425216674805,0.0,0.0,-0.5899999737739563,0.5899999737739563,-0.07308564335107803,0.041270799934864044,1.0,0.20701812207698822,-0.27231577038764954,1725890954.4450572,0.12007976524012742,2.174264706484955,-0.07631859762168967
33.28425216674805,0.0,0.0,-0.5899999737739563,0.5899999737739563,-0.07308564335107803,0.041270799934864044,1.0,0.20701812207698822,-0.27231577038764954,1725890954.4547374,0.12081345367503057,2.1742069909522614,-0.07656636965452927
33.28425216674805,0.0,0.0,-0.5899999737739563,0.5899999737739563,-0.07308564335107803,0.041270799934864044,1.0,0.20701812207698822,-0.27231577038764954,1725890954.4648407,0.1215431054702556,2.1741345385716517,-0.076842502606848
33.28425216674805,0.0,0.0,-0.5899999737739563,0.5899999737739563,-0.07308564335107803,0.041270799934864044,1.0,0.20701812207698822,-0.27231577038764954,1725890954.4749258,0.1222915248900421,2.1740469668920865,-0.07771821112427467
33.28425216674805,0.0,0.0,-0.5899999737739563,0.5899999737739563,-0.07308564335107803,0.041270799934864044,1.0,0.20701812207698822,-0.27231577038764954,1725890954.4849145,0.12306339480086505,2.1739508203195324,-0.07872121672083936
33.28425216674805,0.0,0.0,-0.5899999737739563,0.5899999737739563,-0.07308564335107803,0.041270799934864044,1.0,0.20701812207698822,-0.27231577038764954,1725890954.4960256,0.1237954352461636,2.1738334931433023,-0.07905992122664611
33.28425216674805,0.0,0.0,-0.5899999737739563,0.5899999737739563,-0.07308564335107803,0.041270799934864044,1.0,0.20701812207698822,-0.27231577038764954,1725890954.5053406,0.12437659858324696,2.1737284527885246,-0.07966008591935578
33.28425216674805,0.0,0.0,-0.5899999737739563,0.5899999737739563,-0.07308564335107803,0.041270799934864044,1.0,0.20701812207698822,-0.27231577038764954,1725890954.5151706,0.12495773429787169,2.1736266307979735,-0.08007453454443808
33.28425216674805,0.0,0.0,-0.5899999737739563,0.5899999737739563,-0.07308564335107803,0.041270799934864044,1.0,0.20701812207698822,-0.27231577038764954,1725890954.524943,0.12560542108789208,2.1735455711352567,-0.08039837462064937
33.28425216674805,0.0,0.0,-0.5899999737739563,0.5899999737739563,-0.07308564335107803,0.041270799934864044,1.0,0.20701812207698822,-0.27231577038764954,1725890954.5348728,0.1263616957418057,2.1734627706775327,-0.0802643193889445
33.383644104003906,0.0,0.0,-0.8700000047683716,0.3400000035762787,-0.02399827167391777,0.08254159986972809,1.0,0.20764708518981934,-0.27231577038764954,1725890954.54525,0.12700297090566515,2.173399948591795,-0.08056161585838054
33.383644104003906,0.0,0.0,-0.8700000047683716,0.3400000035762787,-0.02399827167391777,0.08254159986972809,1.0,0.20764708518981934,-0.27231577038764954,1725890954.554966,0.12758652957104907,2.1733162456434654,-0.08091914995263726
33.383644104003906,0.0,0.0,-0.8700000047683716,0.3400000035762787,-0.02399827167391777,0.08254159986972809,1.0,0.20764708518981934,-0.27231577038764954,1725890954.5649443,0.12814142826891206,2.173247963874527,-0.08120260196227862
33.383644104003906,0.0,0.0,-0.8700000047683716,0.3400000035762787,-0.02399827167391777,0.08254159986972809,1.0,0.20764708518981934,-0.27231577038764954,1725890954.5748465,0.12870829450682042,2.1731731259611853,-0.08127694604371373
33.383644104003906,0.0,0.0,-0.8700000047683716,0.3400000035762787,-0.02399827167391777,0.08254159986972809,1.0,0.20764708518981934,-0.27231577038764954,1725890954.5848074,0.12926088003637665,2.173120968953085,-0.0816434780550152
33.383644104003906,0.0,0.0,-0.8700000047683716,0.3400000035762787,-0.02399827167391777,0.08254159986972809,1.0,0.20764708518981934,-0.27231577038764954,1725890954.5949922,0.12972353213005822,2.1730452128771245,-0.0818706388024685
33.383644104003906,0.0,0.0,-0.8700000047683716,0.3400000035762787,-0.02399827167391777,0.08254159986972809,1.0,0.20764708518981934,-0.27231577038764954,1725890954.605007,0.13016450068565907,2.1729648476812673,-0.0824010431549226
33.383644104003906,0.0,0.0,-0.8700000047683716,0.3400000035762787,-0.02399827167391777,0.08254159986972809,1.0,0.20764708518981934,-0.27231577038764954,1725890954.6149192,0.1305898456509033,2.1728810791531408,-0.08283964397665047
33.383644104003906,0.0,0.0,-0.8700000047683716,0.3400000035762787,-0.02399827167391777,0.08254159986972809,1.0,0.20764708518981934,-0.27231577038764954,1725890954.6253629,0.13103490200314297,2.1727978598838273,-0.08371629190828984
33.383644104003906,0.0,0.0,-0.8700000047683716,0.3400000035762787,-0.02399827167391777,0.08254159986972809,1.0,0.20764708518981934,-0.27231577038764954,1725890954.6349416,0.13157321306992206,2.1727479496446658,-0.08342253835786878
33.48366165161133,0.0,0.0,-0.5099999904632568,0.30000001192092896,-0.034906577318906784,0.041270799934864044,1.0,0.20827780663967133,-0.27231577038764954,1725890954.6450045,0.1319814833922896,2.1726812705134106,-0.08338428444995365
33.48366165161133,0.0,0.0,-0.5099999904632568,0.30000001192092896,-0.034906577318906784,0.041270799934864044,1.0,0.20827780663967133,-0.27231577038764954,1725890954.6547027,0.13234993223216507,2.1725895616510313,-0.08353322741442157
33.48366165161133,0.0,0.0,-0.5099999904632568,0.30000001192092896,-0.034906577318906784,0.041270799934864044,1.0,0.20827780663967133,-0.27231577038764954,1725890954.6648788,0.13273404862213306,2.172497406168315,-0.08344396771510552
33.48366165161133,0.0,0.0,-0.5099999904632568,0.30000001192092896,-0.034906577318906784,0.041270799934864044,1.0,0.20827780663967133,-0.27231577038764954,1725890954.6748652,0.13302712237914976,2.1724257322670573,-0.08367293517204734
33.48366165161133,0.0,0.0,-0.5099999904632568,0.30000001192092896,-0.034906577318906784,0.041270799934864044,1.0,0.20827780663967133,-0.27231577038764954,1725890954.6850474,0.1332536952609125,2.1723600844620576,-0.08378159468768673
33.48366165161133,0.0,0.0,-0.5099999904632568,0.30000001192092896,-0.034906577318906784,0.041270799934864044,1.0,0.20827780663967133,-0.27231577038764954,1725890954.695001,0.13350385316559954,2.172286209836313,-0.08414915901720321
33.48366165161133,0.0,0.0,-0.5099999904632568,0.30000001192092896,-0.034906577318906784,0.041270799934864044,1.0,0.20827780663967133,-0.27231577038764954,1725890954.7049842,0.13389460041831008,2.1722404361421934,-0.08478997398382453
33.48366165161133,0.0,0.0,-0.5099999904632568,0.30000001192092896,-0.034906577318906784,0.041270799934864044,1.0,0.20827780663967133,-0.27231577038764954,1725890954.714588,0.13419120914663282,2.172195852829805,-0.08519587902065878
33.48366165161133,0.0,0.0,-0.5099999904632568,0.30000001192092896,-0.034906577318906784,0.041270799934864044,1.0,0.20827780663967133,-0.27231577038764954,1725890954.7246535,0.13446362686401056,2.172137746276757,-0.0852756910255705
33.48366165161133,0.0,0.0,-0.5099999904632568,0.30000001192092896,-0.034906577318906784,0.041270799934864044,1.0,0.20827780663967133,-0.27231577038764954,1725890954.73488,0.1347596156925628,2.1720685093957357,-0.08550834542541712
33.58284378051758,0.0,0.0,-0.7400000095367432,0.44999998807907104,-0.030543256551027298,0.041270799934864044,1.0,0.2089049518108368,-0.27231577038764954,1725890954.7455866,0.1349951368428649,2.1720208243739925,-0.08558652542176826
33.58284378051758,0.0,0.0,-0.7400000095367432,0.44999998807907104,-0.030543256551027298,0.041270799934864044,1.0,0.2089049518108368,-0.27231577038764954,1725890954.754923,0.13520361354250646,2.171974057058646,-0.08569502354690849
33.58284378051758,0.0,0.0,-0.7400000095367432,0.44999998807907104,-0.030543256551027298,0.041270799934864044,1.0,0.2089049518108368,-0.27231577038764954,1725890954.7648706,0.13536986303600454,2.1719480441258967,-0.08591659565726105
33.58284378051758,0.0,0.0,-0.7400000095367432,0.44999998807907104,-0.030543256551027298,0.041270799934864044,1.0,0.2089049518108368,-0.27231577038764954,1725890954.7748759,0.1354774000467261,2.171922450661505,-0.08589684135764583
33.58284378051758,0.0,0.0,-0.7400000095367432,0.44999998807907104,-0.030543256551027298,0.041270799934864044,1.0,0.2089049518108368,-0.27231577038764954,1725890954.784935,0.1355618259990676,2.1719300610511896,-0.08582027137357556
33.58284378051758,0.0,0.0,-0.7400000095367432,0.44999998807907104,-0.030543256551027298,0.041270799934864044,1.0,0.2089049518108368,-0.27231577038764954,1725890954.794937,0.1355938627294706,2.171912277951124,-0.08577279582992033
33.58284378051758,0.0,0.0,-0.7400000095367432,0.44999998807907104,-0.030543256551027298,0.041270799934864044,1.0,0.2089049518108368,-0.27231577038764954,1725890954.8050978,0.13564310002902497,2.171911261450973,-0.08574501622069354
33.58284378051758,0.0,0.0,-0.7400000095367432,0.44999998807907104,-0.030543256551027298,0.041270799934864044,1.0,0.2089049518108368,-0.27231577038764954,1725890954.815455,0.1356889943028075,2.1719066612409548,-0.08578216510755897
33.58284378051758,0.0,0.0,-0.7400000095367432,0.44999998807907104,-0.030543256551027298,0.041270799934864044,1.0,0.2089049518108368,-0.27231577038764954,1725890954.825479,0.13579932643301923,2.171896716240027,-0.08558862364716005
33.58284378051758,0.0,0.0,-0.7400000095367432,0.44999998807907104,-0.030543256551027298,0.041270799934864044,1.0,0.2089049518108368,-0.27231577038764954,1725890954.8356102,0.1358979524861162,2.171882464998684,-0.08585218758159663
33.68129348754883,0.0,0.0,-0.3499999940395355,0.15000000596046448,-0.002181661082431674,0.0,1.0,0.20952652394771576,-0.27231577038764954,1725890954.8451235,0.1359925628699183,2.1718581472677996,-0.08582608701605837
33.68129348754883,0.0,0.0,-0.3499999940395355,0.15000000596046448,-0.002181661082431674,0.0,1.0,0.20952652394771576,-0.27231577038764954,1725890954.855183,0.1360937244038021,2.171831718252213,-0.08598462821282471
33.68129348754883,0.0,0.0,-0.3499999940395355,0.15000000596046448,-0.002181661082431674,0.0,1.0,0.20952652394771576,-0.27231577038764954,1725890954.8648694,0.13618657030782758,2.171818702689349,-0.08600486666009227
33.68129348754883,0.0,0.0,-0.3499999940395355,0.15000000596046448,-0.002181661082431674,0.0,1.0,0.20952652394771576,-0.27231577038764954,1725890954.874909,0.13627192882471553,2.1718002029701533,-0.08590728519664552
33.68129348754883,0.0,0.0,-0.3499999940395355,0.15000000596046448,-0.002181661082431674,0.0,1.0,0.20952652394771576,-0.27231577038764954,1725890954.884834,0.136342678890571,2.1717828465698763,-0.08617962786443371
33.68129348754883,0.0,0.0,-0.3499999940395355,0.15000000596046448,-0.002181661082431674,0.0,1.0,0.20952652394771576,-0.27231577038764954,1725890954.89508,0.13641502040884215,2.1717758438385926,-0.08613299876737514
33.68129348754883,0.0,0.0,-0.3499999940395355,0.15000000596046448,-0.002181661082431674,0.0,1.0,0.20952652394771576,-0.27231577038764954,1725890954.90504,0.13647574469225213,2.171779142321627,-0.08608557955622781
33.68129348754883,0.0,0.0,-0.3499999940395355,0.15000000596046448,-0.002181661082431674,0.0,1.0,0.20952652394771576,-0.27231577038764954,1725890954.9151247,0.13651479322561633,2.171763107301307,-0.08620639550928412
33.68129348754883,0.0,0.0,-0.3499999940395355,0.15000000596046448,-0.002181661082431674,0.0,1.0,0.20952652394771576,-0.27231577038764954,1725890954.9249709,0.13657392676386665,2.171757713339276,-0.08621986394797883
33.77830123901367,0.0,0.0,-0.4099999964237213,0.20000000298023224,-0.0032724919728934765,0.0,1.0,0.21014796197414398,-0.27231577038764954,1725890954.935164,0.13660667425655898,2.1717424998484796,-0.08625288477088357
33.77830123901367,0.0,0.0,-0.4099999964237213,0.20000000298023224,-0.0032724919728934765,0.0,1.0,0.21014796197414398,-0.27231577038764954,1725890954.944861,0.1366156109516735,2.171742261163742,-0.0863315647734125
33.77830123901367,0.0,0.0,-0.4099999964237213,0.20000000298023224,-0.0032724919728934765,0.0,1.0,0.21014796197414398,-0.27231577038764954,1725890954.954907,0.13663811415289756,2.1717469959359854,-0.08634385252918793
33.77830123901367,0.0,0.0,-0.4099999964237213,0.20000000298023224,-0.0032724919728934765,0.0,1.0,0.21014796197414398,-0.27231577038764954,1725890954.9648848,0.13664843990210424,2.1717501953769798,-0.08611270232140655
33.77830123901367,0.0,0.0,-0.4099999964237213,0.20000000298023224,-0.0032724919728934765,0.0,1.0,0.21014796197414398,-0.27231577038764954,1725890954.9748669,0.1366547092831737,2.171751453580228,-0.08629575242709289
33.77830123901367,0.0,0.0,-0.4099999964237213,0.20000000298023224,-0.0032724919728934765,0.0,1.0,0.21014796197414398,-0.27231577038764954,1725890954.9853075,0.13665384900195243,2.1717404490576233,-0.08613409010876273
33.77830123901367,0.0,0.0,-0.4099999964237213,0.20000000298023224,-0.0032724919728934765,0.0,1.0,0.21014796197414398,-0.27231577038764954,1725890954.9948902,0.13666004305961776,2.171755102354191,-0.08631555684436835
33.77830123901367,0.0,0.0,-0.4099999964237213,0.20000000298023224,-0.0032724919728934765,0.0,1.0,0.21014796197414398,-0.27231577038764954,1725890955.0050585,0.13666446570307206,2.1717503752998972,-0.08626694846152559
33.77830123901367,0.0,0.0,-0.4099999964237213,0.20000000298023224,-0.0032724919728934765,0.0,1.0,0.21014796197414398,-0.27231577038764954,1725890955.0149014,0.13666237460389635,2.1717551528518535,-0.0864028260101187
33.77830123901367,0.0,0.0,-0.4099999964237213,0.20000000298023224,-0.0032724919728934765,0.0,1.0,0.21014796197414398,-0.27231577038764954,1725890955.02524,0.13666229498078988,2.1717503872140598,-0.08620149821697749
33.87814712524414,0.0,0.0,-0.4099999964237213,0.18000000715255737,-0.001090830541215837,0.041270799934864044,1.0,0.21078146994113922,-0.27231577038764954,1725890955.035242,0.13665481427056675,2.171749010670638,-0.0862900928738552
33.87814712524414,0.0,0.0,-0.4099999964237213,0.18000000715255737,-0.001090830541215837,0.041270799934864044,1.0,0.21078146994113922,-0.27231577038764954,1725890955.0449784,0.13664738417885522,2.171748058776743,-0.08619476817359452
33.87814712524414,0.0,0.0,-0.4099999964237213,0.18000000715255737,-0.001090830541215837,0.041270799934864044,1.0,0.21078146994113922,-0.27231577038764954,1725890955.0549257,0.13664941832422328,2.171744465724087,-0.08631096500404833
33.87814712524414,0.0,0.0,-0.4099999964237213,0.18000000715255737,-0.001090830541215837,0.041270799934864044,1.0,0.21078146994113922,-0.27231577038764954,1725890955.064796,0.1366544291923429,2.1717625804552783,-0.08635699223665541
33.87814712524414,0.0,0.0,-0.4099999964237213,0.18000000715255737,-0.001090830541215837,0.041270799934864044,1.0,0.21078146994113922,-0.27231577038764954,1725890955.0748575,0.13666706393385025,2.171755063952043,-0.0863540883290785
33.87814712524414,0.0,0.0,-0.4099999964237213,0.18000000715255737,-0.001090830541215837,0.041270799934864044,1.0,0.21078146994113922,-0.27231577038764954,1725890955.0849173,0.13666721003830762,2.171746193406261,-0.08613247172322874
33.87814712524414,0.0,0.0,-0.4099999964237213,0.18000000715255737,-0.001090830541215837,0.041270799934864044,1.0,0.21078146994113922,-0.27231577038764954,1725890955.0949514,0.13667159925320949,2.1717438033881407,-0.08620838737841735
33.87814712524414,0.0,0.0,-0.4099999964237213,0.18000000715255737,-0.001090830541215837,0.041270799934864044,1.0,0.21078146994113922,-0.27231577038764954,1725890955.1051965,0.13665968963189068,2.171740644664863,-0.08602919642459707
33.87814712524414,0.0,0.0,-0.4099999964237213,0.18000000715255737,-0.001090830541215837,0.041270799934864044,1.0,0.21078146994113922,-0.27231577038764954,1725890955.1149793,0.1366613797407198,2.171750242275791,-0.08621831425216445
33.87814712524414,0.0,0.0,-0.4099999964237213,0.18000000715255737,-0.001090830541215837,0.041270799934864044,1.0,0.21078146994113922,-0.27231577038764954,1725890955.1251833,0.13665543236572023,2.1717517485313724,-0.08639026285513811
33.98017501831055,0.0,0.0,-0.20000000298023224,0.33000001311302185,-0.001090830541215837,0.0,1.0,0.21142993867397308,-0.27231577038764954,1725890955.1352072,0.13665191563918952,2.171748878849316,-0.08636716859125629
33.98017501831055,0.0,0.0,-0.20000000298023224,0.33000001311302185,-0.001090830541215837,0.0,1.0,0.21142993867397308,-0.27231577038764954,1725890955.1453934,0.13665456391490866,2.1717458749165224,-0.08619868727353955
33.98017501831055,0.0,0.0,-0.20000000298023224,0.33000001311302185,-0.001090830541215837,0.0,1.0,0.21142993867397308,-0.27231577038764954,1725890955.1549966,0.13666732463455258,2.1717471300933693,-0.08632622012165607
33.98017501831055,0.0,0.0,-0.20000000298023224,0.33000001311302185,-0.001090830541215837,0.0,1.0,0.21142993867397308,-0.27231577038764954,1725890955.1648874,0.13666331316657315,2.1717496929519373,-0.08636644758055993
33.98017501831055,0.0,0.0,-0.20000000298023224,0.33000001311302185,-0.001090830541215837,0.0,1.0,0.21142993867397308,-0.27231577038764954,1725890955.17483,0.13665327926127618,2.1717490146340865,-0.0861972289424567
33.98017501831055,0.0,0.0,-0.20000000298023224,0.33000001311302185,-0.001090830541215837,0.0,1.0,0.21142993867397308,-0.27231577038764954,1725890955.1853735,0.13665400054974058,2.171756156680306,-0.08635150185323684
33.98017501831055,0.0,0.0,-0.20000000298023224,0.33000001311302185,-0.001090830541215837,0.0,1.0,0.21142993867397308,-0.27231577038764954,1725890955.194932,0.1366657332109721,2.1717443513210477,-0.08629225541800116
33.98017501831055,0.0,0.0,-0.20000000298023224,0.33000001311302185,-0.001090830541215837,0.0,1.0,0.21142993867397308,-0.27231577038764954,1725890955.2048829,0.13665652308399506,2.171749689709888,-0.0861334951414531
33.98017501831055,0.0,0.0,-0.20000000298023224,0.33000001311302185,-0.001090830541215837,0.0,1.0,0.21142993867397308,-0.27231577038764954,1725890955.2153287,0.13664690290042336,2.171746900670036,-0.0863002174997435
33.98017501831055,0.0,0.0,-0.20000000298023224,0.33000001311302185,-0.001090830541215837,0.0,1.0,0.21142993867397308,-0.27231577038764954,1725890955.2255132,0.13666411030402825,2.1717498346039155,-0.08619022252762672
34.077980041503906,0.0,0.0,-0.33000001311302185,0.2199999988079071,0.001090830541215837,0.0,1.0,0.21205660700798035,-0.27231577038764954,1725890955.235189,0.13665965728276644,2.1717511246328987,-0.08641111852678886
34.077980041503906,0.0,0.0,-0.33000001311302185,0.2199999988079071,0.001090830541215837,0.0,1.0,0.21205660700798035,-0.27231577038764954,1725890955.2447119,0.1366652740133467,2.1717463837059294,-0.08623377952955855
34.077980041503906,0.0,0.0,-0.33000001311302185,0.2199999988079071,0.001090830541215837,0.0,1.0,0.21205660700798035,-0.27231577038764954,1725890955.254912,0.1366601079700923,2.1717579180246394,-0.08628217006099703
34.077980041503906,0.0,0.0,-0.33000001311302185,0.2199999988079071,0.001090830541215837,0.0,1.0,0.21205660700798035,-0.27231577038764954,1725890955.2648022,0.1366655138378866,2.1717455806254353,-0.0864180699025099
34.077980041503906,0.0,0.0,-0.33000001311302185,0.2199999988079071,0.001090830541215837,0.0,1.0,0.21205660700798035,-0.27231577038764954,1725890955.2748516,0.13667907285235661,2.171757182631961,-0.08629625532604732
34.077980041503906,0.0,0.0,-0.33000001311302185,0.2199999988079071,0.001090830541215837,0.0,1.0,0.21205660700798035,-0.27231577038764954,1725890955.2848701,0.13665862265128037,2.171752748538708,-0.08629993864114924
34.077980041503906,0.0,0.0,-0.33000001311302185,0.2199999988079071,0.001090830541215837,0.0,1.0,0.21205660700798035,-0.27231577038764954,1725890955.2950542,0.13666186769967537,2.1717542209428604,-0.08618604391130628
34.077980041503906,0.0,0.0,-0.33000001311302185,0.2199999988079071,0.001090830541215837,0.0,1.0,0.21205660700798035,-0.27231577038764954,1725890955.3049629,0.13665693765302342,2.171748137801388,-0.08627578578266151
34.077980041503906,0.0,0.0,-0.33000001311302185,0.2199999988079071,0.001090830541215837,0.0,1.0,0.21205660700798035,-0.27231577038764954,1725890955.314854,0.13666815439361066,2.171742272935585,-0.0862248366662494
34.077980041503906,0.0,0.0,-0.33000001311302185,0.2199999988079071,0.001090830541215837,0.0,1.0,0.21205660700798035,-0.27231577038764954,1725890955.3250637,0.13666397004442465,2.171749244225413,-0.08634395739021403
34.178672790527344,0.0,0.0,-0.4699999988079071,0.1899999976158142,0.002181661082431674,0.0,1.0,0.21271926164627075,-0.27231577038764954,1725890955.3350527,0.1366701826558671,2.1717458822615923,-0.08631416494234478
34.178672790527344,0.0,0.0,-0.4699999988079071,0.1899999976158142,0.002181661082431674,0.0,1.0,0.21271926164627075,-0.27231577038764954,1725890955.3450785,0.1366542799387986,2.17174155165518,-0.0862951476991521
34.178672790527344,0.0,0.0,-0.4699999988079071,0.1899999976158142,0.002181661082431674,0.0,1.0,0.21271926164627075,-0.27231577038764954,1725890955.3549714,0.13666913406711226,2.1717451938006276,-0.08617309499897897
34.178672790527344,0.0,0.0,-0.4699999988079071,0.1899999976158142,0.002181661082431674,0.0,1.0,0.21271926164627075,-0.27231577038764954,1725890955.364891,0.13666919186433754,2.171739898922491,-0.08627799035151254
34.178672790527344,0.0,0.0,-0.4699999988079071,0.1899999976158142,0.002181661082431674,0.0,1.0,0.21271926164627075,-0.27231577038764954,1725890955.3749123,0.13666404791236808,2.171758104423049,-0.08613636297624233
34.178672790527344,0.0,0.0,-0.4699999988079071,0.1899999976158142,0.002181661082431674,0.0,1.0,0.21271926164627075,-0.27231577038764954,1725890955.3856127,0.1366649741053164,2.1717465763933546,-0.0863317319709683
34.178672790527344,0.0,0.0,-0.4699999988079071,0.1899999976158142,0.002181661082431674,0.0,1.0,0.21271926164627075,-0.27231577038764954,1725890955.3949387,0.1366597546902776,2.1717410016634835,-0.08627815140034026
34.178672790527344,0.0,0.0,-0.4699999988079071,0.1899999976158142,0.002181661082431674,0.0,1.0,0.21271926164627075,-0.27231577038764954,1725890955.4051838,0.13666341038960086,2.1717501872533576,-0.0862587486632208
34.178672790527344,0.0,0.0,-0.4699999988079071,0.1899999976158142,0.002181661082431674,0.0,1.0,0.21271926164627075,-0.27231577038764954,1725890955.4154847,0.13667133920111604,2.1717441041037064,-0.08625436322910797
34.178672790527344,0.0,0.0,-0.4699999988079071,0.1899999976158142,0.002181661082431674,0.0,1.0,0.21271926164627075,-0.27231577038764954,1725890955.4255123,0.13666268134176293,2.1717440257690863,-0.08617104374840912
34.278072357177734,0.0,0.0,-0.25999999046325684,0.28999999165534973,0.0,0.0,1.0,0.21335254609584808,-0.27231577038764954,1725890955.4352772,0.13667075421321867,2.1717572472894173,-0.08630013967627088
34.278072357177734,0.0,0.0,-0.25999999046325684,0.28999999165534973,0.0,0.0,1.0,0.21335254609584808,-0.27231577038764954,1725890955.4450095,0.13666363687308877,2.171749603816971,-0.08619098280518371
34.278072357177734,0.0,0.0,-0.25999999046325684,0.28999999165534973,0.0,0.0,1.0,0.21335254609584808,-0.27231577038764954,1725890955.4549336,0.1366628260795565,2.1717502012158314,-0.08622294703789884
34.278072357177734,0.0,0.0,-0.25999999046325684,0.28999999165534973,0.0,0.0,1.0,0.21335254609584808,-0.27231577038764954,1725890955.4648705,0.13666141019081768,2.1717390426465157,-0.08621057516628314
34.278072357177734,0.0,0.0,-0.25999999046325684,0.28999999165534973,0.0,0.0,1.0,0.21335254609584808,-0.27231577038764954,1725890955.475275,0.1366540247249091,2.1717470719493743,-0.08611410999210455
34.278072357177734,0.0,0.0,-0.25999999046325684,0.28999999165534973,0.0,0.0,1.0,0.21335254609584808,-0.27231577038764954,1725890955.4851959,0.1366609658415884,2.171738892169239,-0.08627348910838961
34.278072357177734,0.0,0.0,-0.25999999046325684,0.28999999165534973,0.0,0.0,1.0,0.21335254609584808,-0.27231577038764954,1725890955.4950333,0.1366628074566348,2.171741868092275,-0.08629993144652108
34.278072357177734,0.0,0.0,-0.25999999046325684,0.28999999165534973,0.0,0.0,1.0,0.21335254609584808,-0.27231577038764954,1725890955.5053048,0.13667886105772026,2.1717393020948492,-0.08637816424860022
34.278072357177734,0.0,0.0,-0.25999999046325684,0.28999999165534973,0.0,0.0,1.0,0.21335254609584808,-0.27231577038764954,1725890955.514867,0.13669269023196023,2.1717343717066573,-0.08648076263690205
34.278072357177734,0.0,0.0,-0.25999999046325684,0.28999999165534973,0.0,0.0,1.0,0.21335254609584808,-0.27231577038764954,1725890955.5250525,0.1367043612727814,2.1717505524362393,-0.08636045724807541
34.37857437133789,0.0,0.0,-0.25999999046325684,0.30000001192092896,-0.004363322164863348,0.0,1.0,0.21399550139904022,-0.27231577038764954,1725890955.5350523,0.1367108960215118,2.1717393473219353,-0.08616019771672698
34.37857437133789,0.0,0.0,-0.25999999046325684,0.30000001192092896,-0.004363322164863348,0.0,1.0,0.21399550139904022,-0.27231577038764954,1725890955.5450907,0.13672297887234391,2.1717244614826137,-0.08635070097566586
34.37857437133789,0.0,0.0,-0.25999999046325684,0.30000001192092896,-0.004363322164863348,0.0,1.0,0.21399550139904022,-0.27231577038764954,1725890955.554963,0.13675049776293005,2.1717237507114064,-0.08630479196301015
34.37857437133789,0.0,0.0,-0.25999999046325684,0.30000001192092896,-0.004363322164863348,0.0,1.0,0.21399550139904022,-0.27231577038764954,1725890955.5648932,0.1367775854273817,2.171737290108788,-0.08639036102161912
34.37857437133789,0.0,0.0,-0.25999999046325684,0.30000001192092896,-0.004363322164863348,0.0,1.0,0.21399550139904022,-0.27231577038764954,1725890955.5748305,0.13682743917006707,2.171729566087868,-0.0863870009983473
34.37857437133789,0.0,0.0,-0.25999999046325684,0.30000001192092896,-0.004363322164863348,0.0,1.0,0.21399550139904022,-0.27231577038764954,1725890955.585191,0.1368435070065093,2.171712874736294,-0.08648455898650542
34.37857437133789,0.0,0.0,-0.25999999046325684,0.30000001192092896,-0.004363322164863348,0.0,1.0,0.21399550139904022,-0.27231577038764954,1725890955.5953407,0.13686944768862383,2.171701038106124,-0.08632631537944235
34.37857437133789,0.0,0.0,-0.25999999046325684,0.30000001192092896,-0.004363322164863348,0.0,1.0,0.21399550139904022,-0.27231577038764954,1725890955.6053731,0.13688881768244598,2.171707747428949,-0.08629447866580359
34.37857437133789,0.0,0.0,-0.25999999046325684,0.30000001192092896,-0.004363322164863348,0.0,1.0,0.21399550139904022,-0.27231577038764954,1725890955.6149378,0.13690911409146372,2.17170350693052,-0.08628889483976779
34.37857437133789,0.0,0.0,-0.25999999046325684,0.30000001192092896,-0.004363322164863348,0.0,1.0,0.21399550139904022,-0.27231577038764954,1725890955.6246705,0.13694948952385172,2.171699233396555,-0.08636965425169137
34.47814178466797,0.0,0.0,-0.2800000011920929,0.2199999988079071,0.001090830541215837,0.0,1.0,0.2146325558423996,-0.27231577038764954,1725890955.6347094,0.13695391276039853,2.1716930855527536,-0.08634206696760512
34.47814178466797,0.0,0.0,-0.2800000011920929,0.2199999988079071,0.001090830541215837,0.0,1.0,0.2146325558423996,-0.27231577038764954,1725890955.6444762,0.13697961390253507,2.1716983205544746,-0.08635550625947086
34.47814178466797,0.0,0.0,-0.2800000011920929,0.2199999988079071,0.001090830541215837,0.0,1.0,0.2146325558423996,-0.27231577038764954,1725890955.654514,0.13701554102804842,2.1716849039299118,-0.08644881213760838
34.47814178466797,0.0,0.0,-0.2800000011920929,0.2199999988079071,0.001090830541215837,0.0,1.0,0.2146325558423996,-0.27231577038764954,1725890955.6648147,0.13704629092057574,2.1716771503471772,-0.08644961089625555
34.47814178466797,0.0,0.0,-0.2800000011920929,0.2199999988079071,0.001090830541215837,0.0,1.0,0.2146325558423996,-0.27231577038764954,1725890955.6749125,0.13706726938802788,2.171688287963797,-0.0863034425101876
34.47814178466797,0.0,0.0,-0.2800000011920929,0.2199999988079071,0.001090830541215837,0.0,1.0,0.2146325558423996,-0.27231577038764954,1725890955.6849391,0.13708737525947304,2.1716826992825364,-0.08636337299091781
34.47814178466797,0.0,0.0,-0.2800000011920929,0.2199999988079071,0.001090830541215837,0.0,1.0,0.2146325558423996,-0.27231577038764954,1725890955.6950536,0.1371091739995599,2.171678685550204,-0.08638852163600114
34.47814178466797,0.0,0.0,-0.2800000011920929,0.2199999988079071,0.001090830541215837,0.0,1.0,0.2146325558423996,-0.27231577038764954,1725890955.7050314,0.137105581460804,2.171680516361431,-0.08631941916971078
34.47814178466797,0.0,0.0,-0.2800000011920929,0.2199999988079071,0.001090830541215837,0.0,1.0,0.2146325558423996,-0.27231577038764954,1725890955.7148895,0.13712056798203323,2.1716888226163102,-0.0865459244530417
34.47814178466797,0.0,0.0,-0.2800000011920929,0.2199999988079071,0.001090830541215837,0.0,1.0,0.2146325558423996,-0.27231577038764954,1725890955.725081,0.13713420916256552,2.1716725318159376,-0.08645038147795346
34.5777473449707,0.0,0.0,-0.4099999964237213,0.23999999463558197,0.002181661082431674,0.0,1.0,0.21525351703166962,-0.27231577038764954,1725890955.7353725,0.13715943797304006,2.17166837092105,-0.08643979071401352
34.5777473449707,0.0,0.0,-0.4099999964237213,0.23999999463558197,0.002181661082431674,0.0,1.0,0.21525351703166962,-0.27231577038764954,1725890955.7452326,0.13713884178113525,2.171675235521654,-0.08653491619261053
34.5777473449707,0.0,0.0,-0.4099999964237213,0.23999999463558197,0.002181661082431674,0.0,1.0,0.21525351703166962,-0.27231577038764954,1725890955.7545874,0.13716338064447098,2.171666248331231,-0.0866129472981946
34.5777473449707,0.0,0.0,-0.4099999964237213,0.23999999463558197,0.002181661082431674,0.0,1.0,0.21525351703166962,-0.27231577038764954,1725890955.7649379,0.13716508908393404,2.171663071101171,-0.08635376090192717
34.5777473449707,0.0,0.0,-0.4099999964237213,0.23999999463558197,0.002181661082431674,0.0,1.0,0.21525351703166962,-0.27231577038764954,1725890955.7748852,0.13717609826312138,2.171667423061937,-0.08659735956868887
34.5777473449707,0.0,0.0,-0.4099999964237213,0.23999999463558197,0.002181661082431674,0.0,1.0,0.21525351703166962,-0.27231577038764954,1725890955.785267,0.1371905798876774,2.1716758677426498,-0.08657209847410956
34.5777473449707,0.0,0.0,-0.4099999964237213,0.23999999463558197,0.002181661082431674,0.0,1.0,0.21525351703166962,-0.27231577038764954,1725890955.7949264,0.13718494958267274,2.1716662406629164,-0.08665049668895526
34.5777473449707,0.0,0.0,-0.4099999964237213,0.23999999463558197,0.002181661082431674,0.0,1.0,0.21525351703166962,-0.27231577038764954,1725890955.8048637,0.13717772526552874,2.1716542845872744,-0.08643703585221271
34.5777473449707,0.0,0.0,-0.4099999964237213,0.23999999463558197,0.002181661082431674,0.0,1.0,0.21525351703166962,-0.27231577038764954,1725890955.8149264,0.13717634574094983,2.171665306909818,-0.08657750359557605
34.5777473449707,0.0,0.0,-0.4099999964237213,0.23999999463558197,0.002181661082431674,0.0,1.0,0.21525351703166962,-0.27231577038764954,1725890955.824889,0.1371764278139237,2.1716611494073628,-0.08655541039221676
34.67745590209961,0.0,0.0,-0.38999998569488525,0.25,0.0,0.0,1.0,0.2159208208322525,-0.27231577038764954,1725890955.83495,0.13717890277655823,2.171652868625584,-0.08658865036180118
34.67745590209961,0.0,0.0,-0.38999998569488525,0.25,0.0,0.0,1.0,0.2159208208322525,-0.27231577038764954,1725890955.8450537,0.13719635739729089,2.1716676872431107,-0.086528349728792
34.67745590209961,0.0,0.0,-0.38999998569488525,0.25,0.0,0.0,1.0,0.2159208208322525,-0.27231577038764954,1725890955.8550193,0.13719677197334612,2.171662035109995,-0.0865100513263746
34.67745590209961,0.0,0.0,-0.38999998569488525,0.25,0.0,0.0,1.0,0.2159208208322525,-0.27231577038764954,1725890955.8648486,0.13719313305850497,2.1716757707396814,-0.08666305608036445
34.67745590209961,0.0,0.0,-0.38999998569488525,0.25,0.0,0.0,1.0,0.2159208208322525,-0.27231577038764954,1725890955.8750129,0.13718548628422736,2.171669896836998,-0.08667013225821775
34.67745590209961,0.0,0.0,-0.38999998569488525,0.25,0.0,0.0,1.0,0.2159208208322525,-0.27231577038764954,1725890955.8849666,0.13717857286726667,2.1716652276180977,-0.08649378221929495
34.67745590209961,0.0,0.0,-0.38999998569488525,0.25,0.0,0.0,1.0,0.2159208208322525,-0.27231577038764954,1725890955.8948848,0.13718591259474672,2.171667890219979,-0.08655502701358984
34.67745590209961,0.0,0.0,-0.38999998569488525,0.25,0.0,0.0,1.0,0.2159208208322525,-0.27231577038764954,1725890955.9050949,0.13718867975658378,2.171667215879628,-0.08652315925263362
34.67745590209961,0.0,0.0,-0.38999998569488525,0.25,0.0,0.0,1.0,0.2159208208322525,-0.27231577038764954,1725890955.9148772,0.13718793462981507,2.1716629332238027,-0.08654436186470536
34.67745590209961,0.0,0.0,-0.38999998569488525,0.25,0.0,0.0,1.0,0.2159208208322525,-0.27231577038764954,1725890955.9250567,0.13719314614957412,2.171666963993193,-0.08655235770234752
34.77836608886719,0.0,0.0,-0.33000001311302185,0.15000000596046448,0.001090830541215837,0.0,1.0,0.21653926372528076,-0.27231577038764954,1725890955.9349067,0.13719606719210625,2.171665654914489,-0.08668191286714917
34.77836608886719,0.0,0.0,-0.33000001311302185,0.15000000596046448,0.001090830541215837,0.0,1.0,0.21653926372528076,-0.27231577038764954,1725890955.9452055,0.13719633279142132,2.1716749215909026,-0.0867373511367794
34.77836608886719,0.0,0.0,-0.33000001311302185,0.15000000596046448,0.001090830541215837,0.0,1.0,0.21653926372528076,-0.27231577038764954,1725890955.9551115,0.13719237373572762,2.1716819451615317,-0.08671018297153872
34.77836608886719,0.0,0.0,-0.33000001311302185,0.15000000596046448,0.001090830541215837,0.0,1.0,0.21653926372528076,-0.27231577038764954,1725890955.9644659,0.1371911022631208,2.171672969873474,-0.0866302315442261
34.77836608886719,0.0,0.0,-0.33000001311302185,0.15000000596046448,0.001090830541215837,0.0,1.0,0.21653926372528076,-0.27231577038764954,1725890955.9749036,0.13719342462143533,2.171676500684497,-0.08666046299842979
34.77836608886719,0.0,0.0,-0.33000001311302185,0.15000000596046448,0.001090830541215837,0.0,1.0,0.21653926372528076,-0.27231577038764954,1725890955.9849737,0.13718810727967612,2.171675551146372,-0.08652375172728625
34.77836608886719,0.0,0.0,-0.33000001311302185,0.15000000596046448,0.001090830541215837,0.0,1.0,0.21653926372528076,-0.27231577038764954,1725890955.9949017,0.13719812728748867,2.171657162490163,-0.08664531366699504
34.77836608886719,0.0,0.0,-0.33000001311302185,0.15000000596046448,0.001090830541215837,0.0,1.0,0.21653926372528076,-0.27231577038764954,1725890956.005384,0.13719921521570663,2.171665440783795,-0.08653635663106156
34.77836608886719,0.0,0.0,-0.33000001311302185,0.15000000596046448,0.001090830541215837,0.0,1.0,0.21653926372528076,-0.27231577038764954,1725890956.0148754,0.13720872662675343,2.171659521897061,-0.08649115326684419
34.77836608886719,0.0,0.0,-0.33000001311302185,0.15000000596046448,0.001090830541215837,0.0,1.0,0.21653926372528076,-0.27231577038764954,1725890956.0251606,0.13720779178394354,2.17167539738176,-0.08662690672270854
34.87934494018555,0.0,0.0,-0.3400000035762787,0.15000000596046448,0.0,0.0,1.0,0.21721717715263367,-0.27231577038764954,1725890956.0350242,0.13721696792913718,2.171670076247937,-0.08653283798635025
34.87934494018555,0.0,0.0,-0.3400000035762787,0.15000000596046448,0.0,0.0,1.0,0.21721717715263367,-0.27231577038764954,1725890956.0454245,0.13721135241825366,2.1716734249036436,-0.08658413503202707
34.87934494018555,0.0,0.0,-0.3400000035762787,0.15000000596046448,0.0,0.0,1.0,0.21721717715263367,-0.27231577038764954,1725890956.0552454,0.13719132977087975,2.1716550874811698,-0.08670929038960012
34.87934494018555,0.0,0.0,-0.3400000035762787,0.15000000596046448,0.0,0.0,1.0,0.21721717715263367,-0.27231577038764954,1725890956.0650098,0.13719254383862933,2.1716621411329116,-0.0866316120127767
34.87934494018555,0.0,0.0,-0.3400000035762787,0.15000000596046448,0.0,0.0,1.0,0.21721717715263367,-0.27231577038764954,1725890956.0750682,0.13719900382092234,2.171663855062466,-0.08661110325859506
34.87934494018555,0.0,0.0,-0.3400000035762787,0.15000000596046448,0.0,0.0,1.0,0.21721717715263367,-0.27231577038764954,1725890956.084882,0.13719932349557898,2.1716550489476876,-0.08661944987624282
34.87934494018555,0.0,0.0,-0.3400000035762787,0.15000000596046448,0.0,0.0,1.0,0.21721717715263367,-0.27231577038764954,1725890956.0950363,0.1372026636898804,2.171653198165812,-0.08662449614527928
34.87934494018555,0.0,0.0,-0.3400000035762787,0.15000000596046448,0.0,0.0,1.0,0.21721717715263367,-0.27231577038764954,1725890956.1050463,0.1372095022784473,2.1716657525619385,-0.08645352561227818
34.87934494018555,0.0,0.0,-0.3400000035762787,0.15000000596046448,0.0,0.0,1.0,0.21721717715263367,-0.27231577038764954,1725890956.1149757,0.13720361245241045,2.1716697098873183,-0.08643460696813622
34.87934494018555,0.0,0.0,-0.3400000035762787,0.15000000596046448,0.0,0.0,1.0,0.21721717715263367,-0.27231577038764954,1725890956.1251059,0.137207221638632,2.171667338950343,-0.0864265755701748
34.97795104980469,0.0,0.0,-0.25999999046325684,0.25,0.004363322164863348,0.0,1.0,0.2178119719028473,-0.27231577038764954,1725890956.135152,0.13720602832685483,2.1716617672816176,-0.08661838263450389
34.97795104980469,0.0,0.0,-0.25999999046325684,0.25,0.004363322164863348,0.0,1.0,0.2178119719028473,-0.27231577038764954,1725890956.1452014,0.137208814275459,2.171662490373707,-0.08652045084809869
34.97795104980469,0.0,0.0,-0.25999999046325684,0.25,0.004363322164863348,0.0,1.0,0.2178119719028473,-0.27231577038764954,1725890956.1550188,0.13720975703290456,2.17166217373639,-0.08645170459210116
34.97795104980469,0.0,0.0,-0.25999999046325684,0.25,0.004363322164863348,0.0,1.0,0.2178119719028473,-0.27231577038764954,1725890956.1649225,0.13722113044771958,2.1716640321021723,-0.08652222751306557
34.97795104980469,0.0,0.0,-0.25999999046325684,0.25,0.004363322164863348,0.0,1.0,0.2178119719028473,-0.27231577038764954,1725890956.1749325,0.13720531325131632,2.1716740574965865,-0.08656200111286531
34.97795104980469,0.0,0.0,-0.25999999046325684,0.25,0.004363322164863348,0.0,1.0,0.2178119719028473,-0.27231577038764954,1725890956.185077,0.1372103672467444,2.171667187243253,-0.08667202909628907
34.97795104980469,0.0,0.0,-0.25999999046325684,0.25,0.004363322164863348,0.0,1.0,0.2178119719028473,-0.27231577038764954,1725890956.1949708,0.13721639075921788,2.1716697960202103,-0.08646087468837607
34.97795104980469,0.0,0.0,-0.25999999046325684,0.25,0.004363322164863348,0.0,1.0,0.2178119719028473,-0.27231577038764954,1725890956.205404,0.13718903288645748,2.171657118181564,-0.08659547885866795
34.97795104980469,0.0,0.0,-0.25999999046325684,0.25,0.004363322164863348,0.0,1.0,0.2178119719028473,-0.27231577038764954,1725890956.2149708,0.1371944862940156,2.1716610311531745,-0.08668236401143808
34.97795104980469,0.0,0.0,-0.25999999046325684,0.25,0.004363322164863348,0.0,1.0,0.2178119719028473,-0.27231577038764954,1725890956.2251513,0.13719751617803602,2.1716514906369793,-0.08666467414573502
35.07832336425781,0.0,0.0,-0.3100000023841858,0.3100000023841858,-0.001090830541215837,0.0,1.0,0.21844807267189026,-0.27231577038764954,1725890956.2349873,0.13720880768987434,2.1716507452016542,-0.08668882057960457
35.07832336425781,0.0,0.0,-0.3100000023841858,0.3100000023841858,-0.001090830541215837,0.0,1.0,0.21844807267189026,-0.27231577038764954,1725890956.2451444,0.1371984691506204,2.171657465740205,-0.0864454294268466
35.07832336425781,0.0,0.0,-0.3100000023841858,0.3100000023841858,-0.001090830541215837,0.0,1.0,0.21844807267189026,-0.27231577038764954,1725890956.2550251,0.13721676985125106,2.1716563150808064,-0.0864905435342316
35.07832336425781,0.0,0.0,-0.3100000023841858,0.3100000023841858,-0.001090830541215837,0.0,1.0,0.21844807267189026,-0.27231577038764954,1725890956.264843,0.13720082994956956,2.171668980936953,-0.08663715577647339
35.07832336425781,0.0,0.0,-0.3100000023841858,0.3100000023841858,-0.001090830541215837,0.0,1.0,0.21844807267189026,-0.27231577038764954,1725890956.2748113,0.1372101139349003,2.1716609715080377,-0.08663563338047961
35.07832336425781,0.0,0.0,-0.3100000023841858,0.3100000023841858,-0.001090830541215837,0.0,1.0,0.21844807267189026,-0.27231577038764954,1725890956.2849853,0.1372029937325053,2.1716653942896134,-0.08651347565773589
35.07832336425781,0.0,0.0,-0.3100000023841858,0.3100000023841858,-0.001090830541215837,0.0,1.0,0.21844807267189026,-0.27231577038764954,1725890956.2948806,0.13719820143311812,2.171656269219154,-0.08663684323741287
35.07832336425781,0.0,0.0,-0.3100000023841858,0.3100000023841858,-0.001090830541215837,0.0,1.0,0.21844807267189026,-0.27231577038764954,1725890956.305025,0.1372129921128031,2.17166915709909,-0.08669149598776138
35.07832336425781,0.0,0.0,-0.3100000023841858,0.3100000023841858,-0.001090830541215837,0.0,1.0,0.21844807267189026,-0.27231577038764954,1725890956.3149767,0.1372018011782677,2.171657455641771,-0.08657655982641606
35.07832336425781,0.0,0.0,-0.3100000023841858,0.3100000023841858,-0.001090830541215837,0.0,1.0,0.21844807267189026,-0.27231577038764954,1725890956.3250225,0.1372024240914091,2.1716509561663133,-0.08654091047661391
35.1772346496582,0.0,0.0,-0.47999998927116394,0.10000000149011612,-0.002181661082431674,0.0,1.0,0.2190629243850708,-0.27231577038764954,1725890956.3351965,0.13720556125950667,2.17165558634471,-0.08662167903744203
35.1772346496582,0.0,0.0,-0.47999998927116394,0.10000000149011612,-0.002181661082431674,0.0,1.0,0.2190629243850708,-0.27231577038764954,1725890956.3449981,0.13721410275177146,2.171661252607592,-0.08647443578761198
35.1772346496582,0.0,0.0,-0.47999998927116394,0.10000000149011612,-0.002181661082431674,0.0,1.0,0.2190629243850708,-0.27231577038764954,1725890956.3549101,0.137204212117343,2.171653739586592,-0.0866598979781295
35.1772346496582,0.0,0.0,-0.47999998927116394,0.10000000149011612,-0.002181661082431674,0.0,1.0,0.2190629243850708,-0.27231577038764954,1725890956.3648472,0.1371942597686029,2.171660931484329,-0.08656004566793907
35.1772346496582,0.0,0.0,-0.47999998927116394,0.10000000149011612,-0.002181661082431674,0.0,1.0,0.2190629243850708,-0.27231577038764954,1725890956.3749862,0.1372051811471437,2.1716578803002298,-0.08644106444441885
35.1772346496582,0.0,0.0,-0.47999998927116394,0.10000000149011612,-0.002181661082431674,0.0,1.0,0.2190629243850708,-0.27231577038764954,1725890956.385134,0.13719856949349968,2.171673940743752,-0.08656008140972765
35.1772346496582,0.0,0.0,-0.47999998927116394,0.10000000149011612,-0.002181661082431674,0.0,1.0,0.2190629243850708,-0.27231577038764954,1725890956.395089,0.1372120022370438,2.1716648575007578,-0.08654811088565187
35.1772346496582,0.0,0.0,-0.47999998927116394,0.10000000149011612,-0.002181661082431674,0.0,1.0,0.2190629243850708,-0.27231577038764954,1725890956.405173,0.13720000755030204,2.1716667332472195,-0.086557386123834
35.1772346496582,0.0,0.0,-0.47999998927116394,0.10000000149011612,-0.002181661082431674,0.0,1.0,0.2190629243850708,-0.27231577038764954,1725890956.4149349,0.13722121534836249,2.171662102320787,-0.0866182121962098
35.1772346496582,0.0,0.0,-0.47999998927116394,0.10000000149011612,-0.002181661082431674,0.0,1.0,0.2190629243850708,-0.27231577038764954,1725890956.4249716,0.13720940346878255,2.1716595885401855,-0.08663123004174345
35.28042221069336,0.0,0.0,-0.25999999046325684,0.3100000023841858,-0.0032724919728934765,0.0,1.0,0.21969589591026306,-0.27231577038764954,1725890956.4352207,0.13720321954565173,2.171665160344124,-0.08650820159107664
35.28042221069336,0.0,0.0,-0.25999999046325684,0.3100000023841858,-0.0032724919728934765,0.0,1.0,0.21969589591026306,-0.27231577038764954,1725890956.4449794,0.13720279385480835,2.171664495957189,-0.0866535031083245
35.28042221069336,0.0,0.0,-0.25999999046325684,0.3100000023841858,-0.0032724919728934765,0.0,1.0,0.21969589591026306,-0.27231577038764954,1725890956.4549468,0.13720362586583731,2.171659999827398,-0.0866832728620732
35.28042221069336,0.0,0.0,-0.25999999046325684,0.3100000023841858,-0.0032724919728934765,0.0,1.0,0.21969589591026306,-0.27231577038764954,1725890956.4648693,0.13720903304011692,2.171662631295047,-0.08669680559067922
35.28042221069336,0.0,0.0,-0.25999999046325684,0.3100000023841858,-0.0032724919728934765,0.0,1.0,0.21969589591026306,-0.27231577038764954,1725890956.475338,0.1371939651824249,2.171673901328301,-0.0864435622404794
35.28042221069336,0.0,0.0,-0.25999999046325684,0.3100000023841858,-0.0032724919728934765,0.0,1.0,0.21969589591026306,-0.27231577038764954,1725890956.484995,0.13720636327502125,2.1716727095738904,-0.08658313834619026
35.28042221069336,0.0,0.0,-0.25999999046325684,0.3100000023841858,-0.0032724919728934765,0.0,1.0,0.21969589591026306,-0.27231577038764954,1725890956.4951618,0.1372079738487578,2.171673116121556,-0.08672458727646948
35.28042221069336,0.0,0.0,-0.25999999046325684,0.3100000023841858,-0.0032724919728934765,0.0,1.0,0.21969589591026306,-0.27231577038764954,1725890956.5049136,0.13720093687638027,2.171673796184577,-0.08665653302313549
35.28042221069336,0.0,0.0,-0.25999999046325684,0.3100000023841858,-0.0032724919728934765,0.0,1.0,0.21969589591026306,-0.27231577038764954,1725890956.5148513,0.13720391614108843,2.171665929530986,-0.08663116767808131
35.28042221069336,0.0,0.0,-0.25999999046325684,0.3100000023841858,-0.0032724919728934765,0.0,1.0,0.21969589591026306,-0.27231577038764954,1725890956.5253906,0.13720782122990566,2.1716682982759745,-0.0865039646872595
35.377769470214844,0.0,0.0,-0.3799999952316284,0.23000000417232513,-0.0032724919728934765,0.0,1.0,0.2203453779220581,-0.27231577038764954,1725890956.5355482,0.13721563273396534,2.1716675149116402,-0.0866669884934937
35.377769470214844,0.0,0.0,-0.3799999952316284,0.23000000417232513,-0.0032724919728934765,0.0,1.0,0.2203453779220581,-0.27231577038764954,1725890956.5450425,0.13722485387781116,2.1716700591090157,-0.08667103307160204
35.377769470214844,0.0,0.0,-0.3799999952316284,0.23000000417232513,-0.0032724919728934765,0.0,1.0,0.2203453779220581,-0.27231577038764954,1725890956.555125,0.13721007210432826,2.1716680610639756,-0.08656740317037638
35.377769470214844,0.0,0.0,-0.3799999952316284,0.23000000417232513,-0.0032724919728934765,0.0,1.0,0.2203453779220581,-0.27231577038764954,1725890956.5644832,0.13719965410404225,2.1716587634175584,-0.08655826788408133
35.377769470214844,0.0,0.0,-0.3799999952316284,0.23000000417232513,-0.0032724919728934765,0.0,1.0,0.2203453779220581,-0.27231577038764954,1725890956.5748696,0.13720211605823207,2.171664055303405,-0.08660611073077065
35.377769470214844,0.0,0.0,-0.3799999952316284,0.23000000417232513,-0.0032724919728934765,0.0,1.0,0.2203453779220581,-0.27231577038764954,1725890956.5850058,0.13721091252113768,2.171671811505939,-0.08666606069312703
35.377769470214844,0.0,0.0,-0.3799999952316284,0.23000000417232513,-0.0032724919728934765,0.0,1.0,0.2203453779220581,-0.27231577038764954,1725890956.594912,0.13721303318327313,2.171676115800084,-0.08660997849696586
35.377769470214844,0.0,0.0,-0.3799999952316284,0.23000000417232513,-0.0032724919728934765,0.0,1.0,0.2203453779220581,-0.27231577038764954,1725890956.6050427,0.1372012249266894,2.1716786393544454,-0.0865202818411185
35.377769470214844,0.0,0.0,-0.3799999952316284,0.23000000417232513,-0.0032724919728934765,0.0,1.0,0.2203453779220581,-0.27231577038764954,1725890956.6148856,0.1372098467603731,2.171664132968646,-0.08665067706864876
35.377769470214844,0.0,0.0,-0.3799999952316284,0.23000000417232513,-0.0032724919728934765,0.0,1.0,0.2203453779220581,-0.27231577038764954,1725890956.6249435,0.13721205795903382,2.1716648370220666,-0.08665900039656074
35.47746276855469,0.0,0.0,-0.4399999976158142,0.11999999731779099,-0.001090830541215837,0.0,1.0,0.2209681272506714,-0.27231577038764954,1725890956.635121,0.13720179226173798,2.171674575477709,-0.08656217645799699
35.47746276855469,0.0,0.0,-0.4399999976158142,0.11999999731779099,-0.001090830541215837,0.0,1.0,0.2209681272506714,-0.27231577038764954,1725890956.6450782,0.13719619113672651,2.171665469111902,-0.0865629327350772
35.47746276855469,0.0,0.0,-0.4399999976158142,0.11999999731779099,-0.001090830541215837,0.0,1.0,0.2209681272506714,-0.27231577038764954,1725890956.6546583,0.13719950451959992,2.1716651438820262,-0.08654723097954908
35.47746276855469,0.0,0.0,-0.4399999976158142,0.11999999731779099,-0.001090830541215837,0.0,1.0,0.2209681272506714,-0.27231577038764954,1725890956.6648285,0.1372022791144994,2.171668590036785,-0.08668630593962631
35.47746276855469,0.0,0.0,-0.4399999976158142,0.11999999731779099,-0.001090830541215837,0.0,1.0,0.2209681272506714,-0.27231577038764954,1725890956.674469,0.1372041972206933,2.171675674942447,-0.08662498316166256
35.47746276855469,0.0,0.0,-0.4399999976158142,0.11999999731779099,-0.001090830541215837,0.0,1.0,0.2209681272506714,-0.27231577038764954,1725890956.6848767,0.1372069627238324,2.1716649695964496,-0.08661898324505231
35.47746276855469,0.0,0.0,-0.4399999976158142,0.11999999731779099,-0.001090830541215837,0.0,1.0,0.2209681272506714,-0.27231577038764954,1725890956.6949363,0.13721517078089857,2.1716757087637504,-0.08663118067304923
35.47746276855469,0.0,0.0,-0.4399999976158142,0.11999999731779099,-0.001090830541215837,0.0,1.0,0.2209681272506714,-0.27231577038764954,1725890956.7049794,0.13720015931273852,2.1716600757042306,-0.08666497897332245
35.47746276855469,0.0,0.0,-0.4399999976158142,0.11999999731779099,-0.001090830541215837,0.0,1.0,0.2209681272506714,-0.27231577038764954,1725890956.7148714,0.13719860418638316,2.1716655321192415,-0.08645512978300798
35.47746276855469,0.0,0.0,-0.4399999976158142,0.11999999731779099,-0.001090830541215837,0.0,1.0,0.2209681272506714,-0.27231577038764954,1725890956.7249403,0.13720691043670782,2.171665535927571,-0.08666777364253932
35.57783508300781,0.0,0.0,-0.23000000417232513,0.3400000035762787,0.001090830541215837,0.0,1.0,0.22160346806049347,-0.27231577038764954,1725890956.7349768,0.13719888793590276,2.1716548194749135,-0.08663693852198104
35.57783508300781,0.0,0.0,-0.23000000417232513,0.3400000035762787,0.001090830541215837,0.0,1.0,0.22160346806049347,-0.27231577038764954,1725890956.744936,0.13721865937482994,2.171669307259345,-0.08654362629979338
35.57783508300781,0.0,0.0,-0.23000000417232513,0.3400000035762787,0.001090830541215837,0.0,1.0,0.22160346806049347,-0.27231577038764954,1725890956.7549467,0.13721423750913903,2.1716564502613562,-0.08649952361063065
35.57783508300781,0.0,0.0,-0.23000000417232513,0.3400000035762787,0.001090830541215837,0.0,1.0,0.22160346806049347,-0.27231577038764954,1725890956.7650745,0.13720498212985213,2.1716628190417073,-0.08662120901313673
35.57783508300781,0.0,0.0,-0.23000000417232513,0.3400000035762787,0.001090830541215837,0.0,1.0,0.22160346806049347,-0.27231577038764954,1725890956.7749612,0.13721313863528295,2.171661426759549,-0.08659535311902762
35.57783508300781,0.0,0.0,-0.23000000417232513,0.3400000035762787,0.001090830541215837,0.0,1.0,0.22160346806049347,-0.27231577038764954,1725890956.7853494,0.137210897025212,2.171663371967333,-0.08663388796249231
35.57783508300781,0.0,0.0,-0.23000000417232513,0.3400000035762787,0.001090830541215837,0.0,1.0,0.22160346806049347,-0.27231577038764954,1725890956.7949347,0.13720559328022033,2.1716613820764925,-0.08659052938704566
35.57783508300781,0.0,0.0,-0.23000000417232513,0.3400000035762787,0.001090830541215837,0.0,1.0,0.22160346806049347,-0.27231577038764954,1725890956.8049579,0.1372047332394108,2.171676618339423,-0.08643313496821645
35.57783508300781,0.0,0.0,-0.23000000417232513,0.3400000035762787,0.001090830541215837,0.0,1.0,0.22160346806049347,-0.27231577038764954,1725890956.8150556,0.1372023414672035,2.1716709936212926,-0.08652458742145822
35.57783508300781,0.0,0.0,-0.23000000417232513,0.3400000035762787,0.001090830541215837,0.0,1.0,0.22160346806049347,-0.27231577038764954,1725890956.8251922,0.13719980147259592,2.171663009621798,-0.08662732528869174
35.57783508300781,0.0,0.0,-0.23000000417232513,0.3400000035762787,0.001090830541215837,0.0,1.0,0.22160346806049347,-0.27231577038764954,1725890956.8355103,0.1372052583228788,2.171656621298482,-0.08668301729397697
35.68032455444336,0.0,0.0,-0.27000001072883606,0.25999999046325684,0.001090830541215837,0.0,1.0,0.22227109968662262,-0.27231577038764954,1725890956.8452392,0.13720322379546354,2.171666867471515,-0.08673799386697092
35.68032455444336,0.0,0.0,-0.27000001072883606,0.25999999046325684,0.001090830541215837,0.0,1.0,0.22227109968662262,-0.27231577038764954,1725890956.8549652,0.13722309391466098,2.171659701056752,-0.0865903073261191
35.68032455444336,0.0,0.0,-0.27000001072883606,0.25999999046325684,0.001090830541215837,0.0,1.0,0.22227109968662262,-0.27231577038764954,1725890956.8649123,0.1372168504455207,2.171669183888103,-0.08655791840745107
35.68032455444336,0.0,0.0,-0.27000001072883606,0.25999999046325684,0.001090830541215837,0.0,1.0,0.22227109968662262,-0.27231577038764954,1725890956.8749788,0.1372102274985706,2.171667085641347,-0.08653877804793567
35.68032455444336,0.0,0.0,-0.27000001072883606,0.25999999046325684,0.001090830541215837,0.0,1.0,0.22227109968662262,-0.27231577038764954,1725890956.8852103,0.13721072484842917,2.1716585372887924,-0.08655895771154898
35.68032455444336,0.0,0.0,-0.27000001072883606,0.25999999046325684,0.001090830541215837,0.0,1.0,0.22227109968662262,-0.27231577038764954,1725890956.8950355,0.13720187777769316,2.1716654479131776,-0.08649056254509342
35.68032455444336,0.0,0.0,-0.27000001072883606,0.25999999046325684,0.001090830541215837,0.0,1.0,0.22227109968662262,-0.27231577038764954,1725890956.9050658,0.13719217380971305,2.171654561187903,-0.08651589685127452
35.68032455444336,0.0,0.0,-0.27000001072883606,0.25999999046325684,0.001090830541215837,0.0,1.0,0.22227109968662262,-0.27231577038764954,1725890956.9149754,0.13720587905151296,2.171660689667989,-0.08670916444556413
35.68032455444336,0.0,0.0,-0.27000001072883606,0.25999999046325684,0.001090830541215837,0.0,1.0,0.22227109968662262,-0.27231577038764954,1725890956.924914,0.13721209888947644,2.1716609311178243,-0.0864684632818085
35.68032455444336,0.0,0.0,-0.27000001072883606,0.25999999046325684,0.001090830541215837,0.0,1.0,0.22227109968662262,-0.27231577038764954,1725890956.9353642,0.137217926310114,2.171666651229905,-0.0866759951585115
35.78323745727539,0.0,0.0,-0.2800000011920929,0.3199999928474426,-0.001090830541215837,0.0,1.0,0.2228919267654419,-0.27231577038764954,1725890956.9452853,0.1372112146671861,2.17167420603519,-0.08657967251940471
35.78323745727539,0.0,0.0,-0.2800000011920929,0.3199999928474426,-0.001090830541215837,0.0,1.0,0.2228919267654419,-0.27231577038764954,1725890956.9549675,0.1372065612621813,2.171668208556095,-0.08673735798018821
35.78323745727539,0.0,0.0,-0.2800000011920929,0.3199999928474426,-0.001090830541215837,0.0,1.0,0.2228919267654419,-0.27231577038764954,1725890956.96492,0.13719935147136086,2.1716650581404733,-0.08642289233083066
35.78323745727539,0.0,0.0,-0.2800000011920929,0.3199999928474426,-0.001090830541215837,0.0,1.0,0.2228919267654419,-0.27231577038764954,1725890956.9749224,0.13718695338138426,2.1716608893031504,-0.08665980200956094
35.78323745727539,0.0,0.0,-0.2800000011920929,0.3199999928474426,-0.001090830541215837,0.0,1.0,0.2228919267654419,-0.27231577038764954,1725890956.9851694,0.13720061007351494,2.1716674917573027,-0.08655425952113982
35.78323745727539,0.0,0.0,-0.2800000011920929,0.3199999928474426,-0.001090830541215837,0.0,1.0,0.2228919267654419,-0.27231577038764954,1725890956.99501,0.1372231866636364,2.1716793547380284,-0.08648034181411127
35.78323745727539,0.0,0.0,-0.2800000011920929,0.3199999928474426,-0.001090830541215837,0.0,1.0,0.2228919267654419,-0.27231577038764954,1725890957.0052876,0.13719871693067556,2.171658858742161,-0.08668677409853885
35.78323745727539,0.0,0.0,-0.2800000011920929,0.3199999928474426,-0.001090830541215837,0.0,1.0,0.2228919267654419,-0.27231577038764954,1725890957.0150275,0.1372024541139767,2.1716753025307174,-0.08673452729121155
35.78323745727539,0.0,0.0,-0.2800000011920929,0.3199999928474426,-0.001090830541215837,0.0,1.0,0.2228919267654419,-0.27231577038764954,1725890957.0252905,0.13720093494263105,2.171662611486476,-0.08672307410570279
35.87737274169922,0.0,0.0,-0.44999998807907104,0.11999999731779099,-0.001090830541215837,0.0,1.0,0.2235441356897354,-0.27231577038764954,1725890957.0351639,0.13720815106996284,2.1716659044191746,-0.08654803283057133
35.87737274169922,0.0,0.0,-0.44999998807907104,0.11999999731779099,-0.001090830541215837,0.0,1.0,0.2235441356897354,-0.27231577038764954,1725890957.044563,0.13720897258626058,2.1716667412483006,-0.08667972890978584
35.87737274169922,0.0,0.0,-0.44999998807907104,0.11999999731779099,-0.001090830541215837,0.0,1.0,0.2235441356897354,-0.27231577038764954,1725890957.054874,0.13720908222133,2.1716619696426873,-0.08657318390557686
35.87737274169922,0.0,0.0,-0.44999998807907104,0.11999999731779099,-0.001090830541215837,0.0,1.0,0.2235441356897354,-0.27231577038764954,1725890957.0648623,0.1372064677699317,2.1716701750777823,-0.0866706098492145
35.87737274169922,0.0,0.0,-0.44999998807907104,0.11999999731779099,-0.001090830541215837,0.0,1.0,0.2235441356897354,-0.27231577038764954,1725890957.0748582,0.13720303416579763,2.1716604190913618,-0.08667361379431901
35.87737274169922,0.0,0.0,-0.44999998807907104,0.11999999731779099,-0.001090830541215837,0.0,1.0,0.2235441356897354,-0.27231577038764954,1725890957.0849805,0.13720624323193217,2.171669543177488,-0.0866752793126759
35.87737274169922,0.0,0.0,-0.44999998807907104,0.11999999731779099,-0.001090830541215837,0.0,1.0,0.2235441356897354,-0.27231577038764954,1725890957.0950317,0.13719573271529015,2.171675170358643,-0.08655585031725277
35.87737274169922,0.0,0.0,-0.44999998807907104,0.11999999731779099,-0.001090830541215837,0.0,1.0,0.2235441356897354,-0.27231577038764954,1725890957.1051266,0.13720848243158992,2.1716705410841737,-0.08648050884423245
35.87737274169922,0.0,0.0,-0.44999998807907104,0.11999999731779099,-0.001090830541215837,0.0,1.0,0.2235441356897354,-0.27231577038764954,1725890957.1150148,0.13722058285385985,2.171666184563798,-0.08654228098852917
35.87737274169922,0.0,0.0,-0.44999998807907104,0.11999999731779099,-0.001090830541215837,0.0,1.0,0.2235441356897354,-0.27231577038764954,1725890957.1254938,0.13721459616588377,2.171662458899814,-0.08654948747233031
35.979026794433594,0.0,0.0,-0.33000001311302185,0.25999999046325684,0.0032724919728934765,0.0,1.0,0.22418586909770966,-0.27231577038764954,1725890957.1350243,0.1372113343108723,2.1716675351262147,-0.08664721040885992
35.979026794433594,0.0,0.0,-0.33000001311302185,0.25999999046325684,0.0032724919728934765,0.0,1.0,0.22418586909770966,-0.27231577038764954,1725890957.1452372,0.13721572086227618,2.1716667190374315,-0.08657576711361245
35.979026794433594,0.0,0.0,-0.33000001311302185,0.25999999046325684,0.0032724919728934765,0.0,1.0,0.22418586909770966,-0.27231577038764954,1725890957.1550705,0.137214732687835,2.171669238934082,-0.08663311618467108
35.979026794433594,0.0,0.0,-0.33000001311302185,0.25999999046325684,0.0032724919728934765,0.0,1.0,0.22418586909770966,-0.27231577038764954,1725890957.1649568,0.1372068722733828,2.171676369890302,-0.08666849168347647
35.979026794433594,0.0,0.0,-0.33000001311302185,0.25999999046325684,0.0032724919728934765,0.0,1.0,0.22418586909770966,-0.27231577038764954,1725890957.1748672,0.13720923061064136,2.1716660294329726,-0.08662620043680222
35.979026794433594,0.0,0.0,-0.33000001311302185,0.25999999046325684,0.0032724919728934765,0.0,1.0,0.22418586909770966,-0.27231577038764954,1725890957.1850522,0.13720821772409744,2.171662240748019,-0.08665726497786048
35.979026794433594,0.0,0.0,-0.33000001311302185,0.25999999046325684,0.0032724919728934765,0.0,1.0,0.22418586909770966,-0.27231577038764954,1725890957.1950338,0.13720742043548312,2.1716617150656097,-0.08653961643643722
35.979026794433594,0.0,0.0,-0.33000001311302185,0.25999999046325684,0.0032724919728934765,0.0,1.0,0.22418586909770966,-0.27231577038764954,1725890957.2049515,0.1372021865572519,2.1716626708644187,-0.08681331834360148
