elapsed time sensors,current,voltage,acc x (IMU),acc y (IMU),W (IMU),vel encoder,safety_value,throttle,steering,vicon time,vicon x,vicon y,vicon yaw
0.0,0.0,0.0,0.0,0.0,0.0,0.0,0.0,0.0,0.0,1725891869.168345,0.06933955120924787,0.588557526821088,-0.000983262272594284
0.0,0.0,0.0,0.0,0.0,0.0,0.0,0.0,0.0,0.0,1725891869.1785626,0.06933841405972614,0.5885654604850834,-0.0009704715344437984
0.0,0.0,0.0,0.0,0.0,0.0,0.0,0.0,0.0,0.0,1725891869.1884146,0.0693306187358467,0.5885514923781457,-0.0009848337379092665
0.0,0.0,0.0,0.0,0.0,0.0,0.0,0.0,0.0,0.0,1725891869.1985338,0.06934321190616256,0.5885642135881093,-0.00112423904742145
0.0,0.0,0.0,0.0,0.0,0.0,0.0,0.0,0.0,0.0,1725891869.2086031,0.06934606931446506,0.58855477943973,-0.0010192175326460778
0.0,0.0,0.0,0.0,0.0,0.0,0.0,0.0,0.0,0.0,1725891869.2184432,0.06934072293256754,0.5885557799109646,-0.0009816777481864857
0.0,0.0,0.0,0.0,0.0,0.0,0.0,0.0,0.0,0.0,1725891869.2282534,0.06934550296888019,0.5885566904102939,-0.0009857980539372587
0.0,0.0,0.0,0.0,0.0,0.0,0.0,0.0,0.0,0.0,1725891869.2384045,0.06934303290180649,0.5885640427308368,-0.0010872894138701003
28.640121459960938,0.0,0.0,-0.36000001430511475,0.2199999988079071,0.0,0.0,0.0,0.0,-0.49789974093437195,1725891869.248352,0.06934699982820075,0.5885645241747651,-0.0011092892854710505
28.640121459960938,0.0,0.0,-0.36000001430511475,0.2199999988079071,0.0,0.0,0.0,0.0,-0.49789974093437195,1725891869.2583668,0.06934486930047142,0.5885673219774704,-0.001041786866097803
28.640121459960938,0.0,0.0,-0.36000001430511475,0.2199999988079071,0.0,0.0,0.0,0.0,-0.49789974093437195,1725891869.2685955,0.0693443950396728,0.5885592031171775,-0.0010449806174355448
28.640121459960938,0.0,0.0,-0.36000001430511475,0.2199999988079071,0.0,0.0,0.0,0.0,-0.49789974093437195,1725891869.278369,0.0693434439302885,0.5885565139496166,-0.0010375236149346705
28.640121459960938,0.0,0.0,-0.36000001430511475,0.2199999988079071,0.0,0.0,0.0,0.0,-0.49789974093437195,1725891869.2883625,0.06934705509733483,0.5885571588305005,-0.0008835291619348658
28.640121459960938,0.0,0.0,-0.36000001430511475,0.2199999988079071,0.0,0.0,0.0,0.0,-0.49789974093437195,1725891869.298259,0.0693457591291557,0.5885527613545197,-0.000986284537638804
28.640121459960938,0.0,0.0,-0.36000001430511475,0.2199999988079071,0.0,0.0,0.0,0.0,-0.49789974093437195,1725891869.3086252,0.06933948692013074,0.5885616681858298,-0.001022184265483097
28.640121459960938,0.0,0.0,-0.36000001430511475,0.2199999988079071,0.0,0.0,0.0,0.0,-0.49789974093437195,1725891869.31849,0.0693373115183579,0.5885535004806228,-0.0009836113411879756
28.640121459960938,0.0,0.0,-0.36000001430511475,0.2199999988079071,0.0,0.0,0.0,0.0,-0.49789974093437195,1725891869.3284228,0.06934456523659654,0.5885611500779437,-0.0010636911796777118
28.640121459960938,0.0,0.0,-0.36000001430511475,0.2199999988079071,0.0,0.0,0.0,0.0,-0.49789974093437195,1725891869.338405,0.06933694903024233,0.5885584648459259,-0.0010163692070191774
28.74087905883789,0.0,0.0,-0.3400000035762787,0.20999999344348907,0.001090830541215837,0.0,0.0,0.0,-0.49789974093437195,1725891869.3484545,0.06934191278954473,0.5885587997381903,-0.0009639441893413762
28.74087905883789,0.0,0.0,-0.3400000035762787,0.20999999344348907,0.001090830541215837,0.0,0.0,0.0,-0.49789974093437195,1725891869.358334,0.06933730121036158,0.5885613420893857,-0.0010485013732768964
28.74087905883789,0.0,0.0,-0.3400000035762787,0.20999999344348907,0.001090830541215837,0.0,0.0,0.0,-0.49789974093437195,1725891869.3683293,0.06934540557686368,0.588552325638226,-0.0009125437321549312
28.74087905883789,0.0,0.0,-0.3400000035762787,0.20999999344348907,0.001090830541215837,0.0,0.0,0.0,-0.49789974093437195,1725891869.37847,0.0693335399166089,0.5885554531272962,-0.001037380404770283
28.74087905883789,0.0,0.0,-0.3400000035762787,0.20999999344348907,0.001090830541215837,0.0,0.0,0.0,-0.49789974093437195,1725891869.388393,0.06933148976970042,0.5885566418961052,-0.0008490962109099051
28.74087905883789,0.0,0.0,-0.3400000035762787,0.20999999344348907,0.001090830541215837,0.0,0.0,0.0,-0.49789974093437195,1725891869.3984046,0.0693337472399434,0.5885586216985471,-0.0010276942292747329
28.74087905883789,0.0,0.0,-0.3400000035762787,0.20999999344348907,0.001090830541215837,0.0,0.0,0.0,-0.49789974093437195,1725891869.408743,0.06932773377909938,0.5885565227575319,-0.0010490440514166058
28.74087905883789,0.0,0.0,-0.3400000035762787,0.20999999344348907,0.001090830541215837,0.0,0.0,0.0,-0.49789974093437195,1725891869.4184902,0.0693338933739553,0.5885522579402226,-0.001094472389478648
28.74087905883789,0.0,0.0,-0.3400000035762787,0.20999999344348907,0.001090830541215837,0.0,0.0,0.0,-0.49789974093437195,1725891869.4284966,0.06933333341610319,0.5885530634223284,-0.0010707348451692608
28.74087905883789,0.0,0.0,-0.3400000035762787,0.20999999344348907,0.001090830541215837,0.0,0.0,0.0,-0.49789974093437195,1725891869.4383602,0.06932798507569075,0.5885556610266006,-0.0009157392951913104
28.83985137939453,0.0,0.0,-0.3100000023841858,0.23000000417232513,0.0,0.0,0.0,0.0,-0.49789974093437195,1725891869.4483395,0.06933061475342003,0.5885530910387216,-0.0010667697257182795
28.83985137939453,0.0,0.0,-0.3100000023841858,0.23000000417232513,0.0,0.0,0.0,0.0,-0.49789974093437195,1725891869.4585226,0.06932954033094552,0.5885561849779538,-0.0008945659057993158
28.83985137939453,0.0,0.0,-0.3100000023841858,0.23000000417232513,0.0,0.0,0.0,0.0,-0.49789974093437195,1725891869.4683945,0.06933288123068629,0.5885522666346134,-0.000916637845161969
28.83985137939453,0.0,0.0,-0.3100000023841858,0.23000000417232513,0.0,0.0,0.0,0.0,-0.49789974093437195,1725891869.4783626,0.06933628487553625,0.5885617420021649,-0.0009429415134536347
28.83985137939453,0.0,0.0,-0.3100000023841858,0.23000000417232513,0.0,0.0,0.0,0.0,-0.49789974093437195,1725891869.4883869,0.06932463504233875,0.5885580265886836,-0.000966097734323828
28.83985137939453,0.0,0.0,-0.3100000023841858,0.23000000417232513,0.0,0.0,0.0,0.0,-0.49789974093437195,1725891869.4983604,0.06933295714488161,0.588545692671471,-0.0010305348441312784
28.83985137939453,0.0,0.0,-0.3100000023841858,0.23000000417232513,0.0,0.0,0.0,0.0,-0.49789974093437195,1725891869.508653,0.06933871483460889,0.5885644270225707,-0.0009594104261932258
28.83985137939453,0.0,0.0,-0.3100000023841858,0.23000000417232513,0.0,0.0,0.0,0.0,-0.49789974093437195,1725891869.5182357,0.06933987617624568,0.5885647959704625,-0.0010475119789149032
28.83985137939453,0.0,0.0,-0.3100000023841858,0.23000000417232513,0.0,0.0,0.0,0.0,-0.49789974093437195,1725891869.5283504,0.06933740820953473,0.5885672314395458,-0.0009510601588497498
28.83985137939453,0.0,0.0,-0.3100000023841858,0.23000000417232513,0.0,0.0,0.0,0.0,-0.49789974093437195,1725891869.5383568,0.0693417108991276,0.588558172176253,-0.0009292101461698386
28.942026138305664,0.0,0.0,-0.36000001430511475,0.25999999046325684,0.0,0.0,0.0,0.0,-0.49789974093437195,1725891869.5483851,0.06933650839602125,0.5885609618078397,-0.0009776202424947975
28.942026138305664,0.0,0.0,-0.36000001430511475,0.25999999046325684,0.0,0.0,0.0,0.0,-0.49789974093437195,1725891869.5585027,0.06933883844114296,0.5885680820645112,-0.0009152375104026836
28.942026138305664,0.0,0.0,-0.36000001430511475,0.25999999046325684,0.0,0.0,0.0,0.0,-0.49789974093437195,1725891869.5685375,0.06934144821607277,0.588559331334689,-0.0009895750823656116
28.942026138305664,0.0,0.0,-0.36000001430511475,0.25999999046325684,0.0,0.0,0.0,0.0,-0.49789974093437195,1725891869.5779593,0.06933796815157764,0.5885660401736476,-0.0008727443593608342
28.942026138305664,0.0,0.0,-0.36000001430511475,0.25999999046325684,0.0,0.0,0.0,0.0,-0.49789974093437195,1725891869.5886276,0.06933630287798757,0.5885616117774055,-0.0010896483968015594
28.942026138305664,0.0,0.0,-0.36000001430511475,0.25999999046325684,0.0,0.0,0.0,0.0,-0.49789974093437195,1725891869.5984964,0.06934010246250034,0.5885508182762013,-0.0010031671650134186
28.942026138305664,0.0,0.0,-0.36000001430511475,0.25999999046325684,0.0,0.0,0.0,0.0,-0.49789974093437195,1725891869.6085157,0.06933468691096416,0.5885659474139129,-0.0009613841134732604
28.942026138305664,0.0,0.0,-0.36000001430511475,0.25999999046325684,0.0,0.0,0.0,0.0,-0.49789974093437195,1725891869.6183553,0.0693464796413493,0.588565382660686,-0.0009505426272063399
28.942026138305664,0.0,0.0,-0.36000001430511475,0.25999999046325684,0.0,0.0,0.0,0.0,-0.49789974093437195,1725891869.6284273,0.06933995423084711,0.5885597825726333,-0.0010675291920060077
28.942026138305664,0.0,0.0,-0.36000001430511475,0.25999999046325684,0.0,0.0,0.0,0.0,-0.49789974093437195,1725891869.6382484,0.06933998239392218,0.5885682662110386,-0.001000006557793362
29.040233612060547,0.0,0.0,-0.3700000047683716,0.2800000011920929,-0.002181661082431674,0.0,0.0,0.0,-0.49789974093437195,1725891869.6483426,0.06934365142120934,0.5885700777488845,-0.0010264032470438185
29.040233612060547,0.0,0.0,-0.3700000047683716,0.2800000011920929,-0.002181661082431674,0.0,0.0,0.0,-0.49789974093437195,1725891869.6582842,0.06933723777234449,0.5885562213689025,-0.0010896537631656829
29.040233612060547,0.0,0.0,-0.3700000047683716,0.2800000011920929,-0.002181661082431674,0.0,0.0,0.0,-0.49789974093437195,1725891869.6689053,0.06933416409225697,0.5885609990763965,-0.0009724737587013836
29.040233612060547,0.0,0.0,-0.3700000047683716,0.2800000011920929,-0.002181661082431674,0.0,0.0,0.0,-0.49789974093437195,1725891869.6784708,0.06934364931251856,0.5885675905095817,-0.0008866908626814308
29.040233612060547,0.0,0.0,-0.3700000047683716,0.2800000011920929,-0.002181661082431674,0.0,0.0,0.0,-0.49789974093437195,1725891869.6879816,0.06934736622362563,0.5885591891476204,-0.0009162243311130657
29.040233612060547,0.0,0.0,-0.3700000047683716,0.2800000011920929,-0.002181661082431674,0.0,0.0,0.0,-0.49789974093437195,1725891869.6979434,0.06934080308048202,0.5885670715060156,-0.0009767913836254837
29.040233612060547,0.0,0.0,-0.3700000047683716,0.2800000011920929,-0.002181661082431674,0.0,0.0,0.0,-0.49789974093437195,1725891869.7084994,0.06933955228976277,0.5885587397056721,-0.0010426937870077393
29.040233612060547,0.0,0.0,-0.3700000047683716,0.2800000011920929,-0.002181661082431674,0.0,0.0,0.0,-0.49789974093437195,1725891869.71803,0.06934148093961492,0.5885584868457773,-0.0009661698071415174
29.040233612060547,0.0,0.0,-0.3700000047683716,0.2800000011920929,-0.002181661082431674,0.0,0.0,0.0,-0.49789974093437195,1725891869.7282734,0.06934294217232531,0.5885666394040746,-0.001057869280773063
29.040233612060547,0.0,0.0,-0.3700000047683716,0.2800000011920929,-0.002181661082431674,0.0,0.0,0.0,-0.49789974093437195,1725891869.7383573,0.06932805324467947,0.588552996735829,-0.0009860451025629506
29.14040756225586,0.0,0.0,-0.4300000071525574,0.23999999463558197,-0.002181661082431674,0.0,0.0,0.0,-0.49789974093437195,1725891869.7484348,0.06932679734051131,0.5885667105976653,-0.0011349994650518627
29.14040756225586,0.0,0.0,-0.4300000071525574,0.23999999463558197,-0.002181661082431674,0.0,0.0,0.0,-0.49789974093437195,1725891869.7579973,0.06933610830520043,0.5885650979376644,-0.0010275294403788479
29.14040756225586,0.0,0.0,-0.4300000071525574,0.23999999463558197,-0.002181661082431674,0.0,0.0,0.0,-0.49789974093437195,1725891869.7681646,0.06933735261808127,0.5885592893729921,-0.0009657428707074525
29.14040756225586,0.0,0.0,-0.4300000071525574,0.23999999463558197,-0.002181661082431674,0.0,0.0,0.0,-0.49789974093437195,1725891869.7784884,0.06934354618430237,0.5885591165518214,-0.0009267703291436838
29.14040756225586,0.0,0.0,-0.4300000071525574,0.23999999463558197,-0.002181661082431674,0.0,0.0,0.0,-0.49789974093437195,1725891869.7882106,0.06933623286595886,0.5885577845491571,-0.000948708862394812
29.14040756225586,0.0,0.0,-0.4300000071525574,0.23999999463558197,-0.002181661082431674,0.0,0.0,0.0,-0.49789974093437195,1725891869.798447,0.06934016420120813,0.5885593100094568,-0.00096571052313299
29.14040756225586,0.0,0.0,-0.4300000071525574,0.23999999463558197,-0.002181661082431674,0.0,0.0,0.0,-0.49789974093437195,1725891869.808883,0.0693354048998839,0.5885634409280855,-0.0011009950621346002
29.14040756225586,0.0,0.0,-0.4300000071525574,0.23999999463558197,-0.002181661082431674,0.0,0.0,0.0,-0.49789974093437195,1725891869.8181891,0.06933740470103862,0.5885594384739464,-0.0010495236271922132
29.14040756225586,0.0,0.0,-0.4300000071525574,0.23999999463558197,-0.002181661082431674,0.0,0.0,0.0,-0.49789974093437195,1725891869.8287537,0.06933287124815976,0.5885632583813772,-0.0009739587385093982
29.14040756225586,0.0,0.0,-0.4300000071525574,0.23999999463558197,-0.002181661082431674,0.0,0.0,0.0,-0.49789974093437195,1725891869.8382196,0.06932412769089866,0.5885503182479755,-0.0010680413863718163
29.23661994934082,0.0,0.0,-0.4300000071525574,0.2199999988079071,0.0,0.0,0.0,0.0,-0.49789974093437195,1725891869.848287,0.06934904132623192,0.5885581649499579,-0.0008647032020297401
29.23661994934082,0.0,0.0,-0.4300000071525574,0.2199999988079071,0.0,0.0,0.0,0.0,-0.49789974093437195,1725891869.8583755,0.06933436711876333,0.5885509953668201,-0.0010391816335530194
29.23661994934082,0.0,0.0,-0.4300000071525574,0.2199999988079071,0.0,0.0,0.0,0.0,-0.49789974093437195,1725891869.8683722,0.06933581701131683,0.5885535830490132,-0.0008468177203735089
29.23661994934082,0.0,0.0,-0.4300000071525574,0.2199999988079071,0.0,0.0,0.0,0.0,-0.49789974093437195,1725891869.8781755,0.06933115936538173,0.5885601074730628,-0.0010690599700996322
29.23661994934082,0.0,0.0,-0.4300000071525574,0.2199999988079071,0.0,0.0,0.0,0.0,-0.49789974093437195,1725891869.8883922,0.06933254728643581,0.5885553843290061,-0.0009514942449204377
29.23661994934082,0.0,0.0,-0.4300000071525574,0.2199999988079071,0.0,0.0,0.0,0.0,-0.49789974093437195,1725891869.8983762,0.06934064136226462,0.5885621351039603,-0.000957389557733141
29.23661994934082,0.0,0.0,-0.4300000071525574,0.2199999988079071,0.0,0.0,0.0,0.0,-0.49789974093437195,1725891869.9085412,0.06933688789117885,0.5885649256765813,-0.0009523766172482058
29.23661994934082,0.0,0.0,-0.4300000071525574,0.2199999988079071,0.0,0.0,0.0,0.0,-0.49789974093437195,1725891869.9184103,0.06934222134680314,0.5885599205290349,-0.0009072820809438905
29.23661994934082,0.0,0.0,-0.4300000071525574,0.2199999988079071,0.0,0.0,0.0,0.0,-0.49789974093437195,1725891869.928389,0.06933202365974854,0.5885616262990502,-0.000915734495243546
29.23661994934082,0.0,0.0,-0.4300000071525574,0.2199999988079071,0.0,0.0,0.0,0.0,-0.49789974093437195,1725891869.9380236,0.06933659453700225,0.5885517793011092,-0.0009001975517082821
29.339412689208984,0.0,0.0,-0.30000001192092896,0.27000001072883606,-0.002181661082431674,0.0,0.0,0.0,-0.49789974093437195,1725891869.948571,0.0693317424420847,0.5885591582947819,-0.0009458807241094369
29.339412689208984,0.0,0.0,-0.30000001192092896,0.27000001072883606,-0.002181661082431674,0.0,0.0,0.0,-0.49789974093437195,1725891869.9584792,0.06934545893637699,0.5885555696095102,-0.0009204353542586753
29.339412689208984,0.0,0.0,-0.30000001192092896,0.27000001072883606,-0.002181661082431674,0.0,0.0,0.0,-0.49789974093437195,1725891869.9682736,0.06933400520893182,0.5885639178688218,-0.0010387293052879032
29.339412689208984,0.0,0.0,-0.30000001192092896,0.27000001072883606,-0.002181661082431674,0.0,0.0,0.0,-0.49789974093437195,1725891869.97864,0.06933597354469077,0.5885536482293813,-0.0010954155301229754
29.339412689208984,0.0,0.0,-0.30000001192092896,0.27000001072883606,-0.002181661082431674,0.0,0.0,0.0,-0.49789974093437195,1725891869.9886377,0.06934292995075017,0.5885657708534581,-0.0009751657450185695
29.339412689208984,0.0,0.0,-0.30000001192092896,0.27000001072883606,-0.002181661082431674,0.0,0.0,0.0,-0.49789974093437195,1725891869.9979062,0.06933698644852382,0.5885511471233618,-0.0011088719552034053
29.339412689208984,0.0,0.0,-0.30000001192092896,0.27000001072883606,-0.002181661082431674,0.0,0.0,0.0,-0.49789974093437195,1725891870.0086167,0.06934112185086369,0.5885628777341958,-0.0008668331078022303
29.339412689208984,0.0,0.0,-0.30000001192092896,0.27000001072883606,-0.002181661082431674,0.0,0.0,0.0,-0.49789974093437195,1725891870.0185473,0.06933556745804033,0.5885573481700949,-0.0010468879455401527
29.339412689208984,0.0,0.0,-0.30000001192092896,0.27000001072883606,-0.002181661082431674,0.0,0.0,0.0,-0.49789974093437195,1725891870.0283463,0.0693432889166815,0.5885642302239981,-0.0010069011761637294
29.339412689208984,0.0,0.0,-0.30000001192092896,0.27000001072883606,-0.002181661082431674,0.0,0.0,0.0,-0.49789974093437195,1725891870.0383277,0.06933874547488014,0.5885621127022809,-0.0009576341412506356
29.4361629486084,0.0,0.0,-0.33000001311302185,0.2800000011920929,0.002181661082431674,0.0,0.0,0.0,-0.49789974093437195,1725891870.0484025,0.06934288262085869,0.5885583980680716,-0.0009066075248035131
29.4361629486084,0.0,0.0,-0.33000001311302185,0.2800000011920929,0.002181661082431674,0.0,0.0,0.0,-0.49789974093437195,1725891870.058157,0.06933748630180175,0.5885623858309754,-0.0010358386928220541
29.4361629486084,0.0,0.0,-0.33000001311302185,0.2800000011920929,0.002181661082431674,0.0,0.0,0.0,-0.49789974093437195,1725891870.0687273,0.06934876689210766,0.5885514461792389,-0.0010349759153849912
29.4361629486084,0.0,0.0,-0.33000001311302185,0.2800000011920929,0.002181661082431674,0.0,0.0,0.0,-0.49789974093437195,1725891870.0784643,0.06933505348146686,0.588562715471328,-0.0009927273308268803
29.4361629486084,0.0,0.0,-0.33000001311302185,0.2800000011920929,0.002181661082431674,0.0,0.0,0.0,-0.49789974093437195,1725891870.0884101,0.06933245936576209,0.5885623943895414,-0.0009683982684920462
29.4361629486084,0.0,0.0,-0.33000001311302185,0.2800000011920929,0.002181661082431674,0.0,0.0,0.0,-0.49789974093437195,1725891870.098112,0.0693356337705788,0.5885615223579767,-0.0010834596758753368
29.4361629486084,0.0,0.0,-0.33000001311302185,0.2800000011920929,0.002181661082431674,0.0,0.0,0.0,-0.49789974093437195,1725891870.1080482,0.06934200621591435,0.5885522427909498,-0.0010588519888043144
29.4361629486084,0.0,0.0,-0.33000001311302185,0.2800000011920929,0.002181661082431674,0.0,0.0,0.0,-0.49789974093437195,1725891870.1180034,0.06933073795163121,0.5885638305115787,-0.0010131314204844992
29.4361629486084,0.0,0.0,-0.33000001311302185,0.2800000011920929,0.002181661082431674,0.0,0.0,0.0,-0.49789974093437195,1725891870.1283479,0.06933745321224008,0.5885540759759424,-0.0010331744158597078
29.4361629486084,0.0,0.0,-0.33000001311302185,0.2800000011920929,0.002181661082431674,0.0,0.0,0.0,-0.49789974093437195,1725891870.1379678,0.06932834481945958,0.5885592319392885,-0.0010560301537358386
29.538774490356445,0.0,0.0,-0.3700000047683716,0.25999999046325684,0.0,0.0,0.0,0.0,-0.49789974093437195,1725891870.147953,0.06933163301147957,0.5885730464658893,-0.0009054417088331936
29.538774490356445,0.0,0.0,-0.3700000047683716,0.25999999046325684,0.0,0.0,0.0,0.0,-0.49789974093437195,1725891870.1580255,0.06933836553251085,0.588556789214196,-0.0009872787281261374
29.538774490356445,0.0,0.0,-0.3700000047683716,0.25999999046325684,0.0,0.0,0.0,0.0,-0.49789974093437195,1725891870.1679409,0.06932834144076308,0.588566331349102,-0.001027089757747139
29.538774490356445,0.0,0.0,-0.3700000047683716,0.25999999046325684,0.0,0.0,0.0,0.0,-0.49789974093437195,1725891870.1779444,0.06933055248239127,0.5885582165092675,-0.0010006105648681439
29.538774490356445,0.0,0.0,-0.3700000047683716,0.25999999046325684,0.0,0.0,0.0,0.0,-0.49789974093437195,1725891870.1879354,0.06932566232476589,0.5885718831104837,-0.0009416667194956623
29.538774490356445,0.0,0.0,-0.3700000047683716,0.25999999046325684,0.0,0.0,0.0,0.0,-0.49789974093437195,1725891870.1981003,0.06934523357049745,0.588553100707479,-0.0010083520886190116
29.538774490356445,0.0,0.0,-0.3700000047683716,0.25999999046325684,0.0,0.0,0.0,0.0,-0.49789974093437195,1725891870.208119,0.06933865137162619,0.5885634426620022,-0.001059057996840602
29.538774490356445,0.0,0.0,-0.3700000047683716,0.25999999046325684,0.0,0.0,0.0,0.0,-0.49789974093437195,1725891870.2181778,0.06933065173678714,0.5885647121343075,-0.0009833300894547957
29.538774490356445,0.0,0.0,-0.3700000047683716,0.25999999046325684,0.0,0.0,0.0,0.0,-0.49789974093437195,1725891870.2280757,0.06933560226208338,0.588563385828591,-0.001021989568597735
29.538774490356445,0.0,0.0,-0.3700000047683716,0.25999999046325684,0.0,0.0,0.0,0.0,-0.49789974093437195,1725891870.238096,0.06931944134693085,0.5885603691064313,-0.0009891137794300186
29.638450622558594,0.0,0.0,-0.4300000071525574,0.25,0.0032724919728934765,0.0,0.0,0.0,-0.49789974093437195,1725891870.2480474,0.06933517978138137,0.5885576487169143,-0.0009952195086356235
29.638450622558594,0.0,0.0,-0.4300000071525574,0.25,0.0032724919728934765,0.0,0.0,0.0,-0.49789974093437195,1725891870.2583616,0.06932403524129808,0.5885573324465282,-0.0010063361009747633
29.638450622558594,0.0,0.0,-0.4300000071525574,0.25,0.0032724919728934765,0.0,0.0,0.0,-0.49789974093437195,1725891870.2683067,0.06933324026775389,0.5885585201307777,-0.0008669569243814228
29.638450622558594,0.0,0.0,-0.4300000071525574,0.25,0.0032724919728934765,0.0,0.0,0.0,-0.49789974093437195,1725891870.2784033,0.0693356376744061,0.5885563532452781,-0.0009030380173623056
29.638450622558594,0.0,0.0,-0.4300000071525574,0.25,0.0032724919728934765,0.0,0.0,0.0,-0.49789974093437195,1725891870.2884135,0.06933285178095581,0.5885623384924841,-0.0009486173762221184
29.638450622558594,0.0,0.0,-0.4300000071525574,0.25,0.0032724919728934765,0.0,0.0,0.0,-0.49789974093437195,1725891870.2983437,0.0693391281139553,0.5885549136847037,-0.0009959435025888865
29.638450622558594,0.0,0.0,-0.4300000071525574,0.25,0.0032724919728934765,0.0,0.0,0.0,-0.49789974093437195,1725891870.3087687,0.06933341704166328,0.5885691812216539,-0.0011123629283687339
29.638450622558594,0.0,0.0,-0.4300000071525574,0.25,0.0032724919728934765,0.0,0.0,0.0,-0.49789974093437195,1725891870.3183558,0.06934373450763391,0.5885687270239803,-0.0009995402722019799
29.638450622558594,0.0,0.0,-0.4300000071525574,0.25,0.0032724919728934765,0.0,0.0,0.0,-0.49789974093437195,1725891870.3284972,0.06933963815996441,0.58856205943046,-0.0010666275457464857
29.638450622558594,0.0,0.0,-0.4300000071525574,0.25,0.0032724919728934765,0.0,0.0,0.0,-0.49789974093437195,1725891870.338393,0.0693415251767429,0.5885538017039202,-0.0010015873746814458
29.73802947998047,0.0,0.0,-0.46000000834465027,0.20999999344348907,-0.001090830541215837,0.0,0.0,0.0,-0.49789974093437195,1725891870.3481505,0.06933439835267213,0.5885663441047619,-0.0009081694050136496
29.73802947998047,0.0,0.0,-0.46000000834465027,0.20999999344348907,-0.001090830541215837,0.0,0.0,0.0,-0.49789974093437195,1725891870.358483,0.06934012513886256,0.5885620309801808,-0.0008885525998957252
29.73802947998047,0.0,0.0,-0.46000000834465027,0.20999999344348907,-0.001090830541215837,0.0,0.0,0.0,-0.49789974093437195,1725891870.3683958,0.0693437273675417,0.5885673174918575,-0.0009926049195615658
29.73802947998047,0.0,0.0,-0.46000000834465027,0.20999999344348907,-0.001090830541215837,0.0,0.0,0.0,-0.49789974093437195,1725891870.378434,0.06934045767188476,0.5885603238630431,-0.0009951325212460215
29.73802947998047,0.0,0.0,-0.46000000834465027,0.20999999344348907,-0.001090830541215837,0.0,0.0,0.0,-0.49789974093437195,1725891870.3884335,0.06934112524133351,0.5885541503063837,-0.0009478132590789813
29.73802947998047,0.0,0.0,-0.46000000834465027,0.20999999344348907,-0.001090830541215837,0.0,0.0,0.0,-0.49789974093437195,1725891870.398391,0.06933692853661853,0.588558679688665,-0.0010191990280359051
29.73802947998047,0.0,0.0,-0.46000000834465027,0.20999999344348907,-0.001090830541215837,0.0,0.0,0.0,-0.49789974093437195,1725891870.4086003,0.06934452535532178,0.5885549263712178,-0.0009573223424732706
29.73802947998047,0.0,0.0,-0.46000000834465027,0.20999999344348907,-0.001090830541215837,0.0,0.0,0.0,-0.49789974093437195,1725891870.4181461,0.06933196339194174,0.5885682197927352,-0.001033315936113943
29.73802947998047,0.0,0.0,-0.46000000834465027,0.20999999344348907,-0.001090830541215837,0.0,0.0,0.0,-0.49789974093437195,1725891870.4283426,0.06933653530408172,0.588565093632921,-0.000988240699121587
29.73802947998047,0.0,0.0,-0.46000000834465027,0.20999999344348907,-0.001090830541215837,0.0,0.0,0.0,-0.49789974093437195,1725891870.4385307,0.06934346377626507,0.5885633807065356,-0.001016555839704258
29.84174156188965,0.0,0.0,-0.33000001311302185,0.25999999046325684,-0.0032724919728934765,0.0,0.0,0.0,-0.49789974093437195,1725891870.448388,0.069327584113266,0.5885621622950463,-0.0009382962560433602
29.84174156188965,0.0,0.0,-0.33000001311302185,0.25999999046325684,-0.0032724919728934765,0.0,0.0,0.0,-0.49789974093437195,1725891870.458388,0.06933928619812016,0.5885476617195478,-0.0009799709414929653
29.84174156188965,0.0,0.0,-0.33000001311302185,0.25999999046325684,-0.0032724919728934765,0.0,0.0,0.0,-0.49789974093437195,1725891870.4684403,0.06933590159955011,0.5885578535250209,-0.0010202588883326254
29.84174156188965,0.0,0.0,-0.33000001311302185,0.25999999046325684,-0.0032724919728934765,0.0,0.0,0.0,-0.49789974093437195,1725891870.4783285,0.06933428654770815,0.5885543288090896,-0.0009685359904989011
29.84174156188965,0.0,0.0,-0.33000001311302185,0.25999999046325684,-0.0032724919728934765,0.0,0.0,0.0,-0.49789974093437195,1725891870.4885664,0.06933173185919483,0.5885578008248884,-0.0009618015486031271
29.84174156188965,0.0,0.0,-0.33000001311302185,0.25999999046325684,-0.0032724919728934765,0.0,0.0,0.0,-0.49789974093437195,1725891870.498379,0.06933571765832047,0.5885528210558671,-0.0009139420940811116
29.84174156188965,0.0,0.0,-0.33000001311302185,0.25999999046325684,-0.0032724919728934765,0.0,0.0,0.0,-0.49789974093437195,1725891870.5084362,0.069341033250082,0.5885545797928888,-0.000972904734301794
29.84174156188965,0.0,0.0,-0.33000001311302185,0.25999999046325684,-0.0032724919728934765,0.0,0.0,0.0,-0.49789974093437195,1725891870.518854,0.06934156784754551,0.5885623941642366,-0.0010194151682980323
29.84174156188965,0.0,0.0,-0.33000001311302185,0.25999999046325684,-0.0032724919728934765,0.0,0.0,0.0,-0.49789974093437195,1725891870.5280933,0.06933775677902813,0.5885513935030395,-0.0009473323701204414
29.84174156188965,0.0,0.0,-0.33000001311302185,0.25999999046325684,-0.0032724919728934765,0.0,0.0,0.0,-0.49789974093437195,1725891870.5383472,0.06932926281298668,0.5885476024359974,-0.000982684958770083
29.940975189208984,0.0,0.0,-0.36000001430511475,0.23999999463558197,-0.001090830541215837,0.0,0.0,0.0,-0.49789974093437195,1725891870.548519,0.06932557357799864,0.5885541055304194,-0.001051601836959608
29.940975189208984,0.0,0.0,-0.36000001430511475,0.23999999463558197,-0.001090830541215837,0.0,0.0,0.0,-0.49789974093437195,1725891870.5581152,0.06933513631692702,0.5885563836266748,-0.001027546522400597
29.940975189208984,0.0,0.0,-0.36000001430511475,0.23999999463558197,-0.001090830541215837,0.0,0.0,0.0,-0.49789974093437195,1725891870.5683777,0.06933959521231367,0.5885595354625163,-0.001043050063177649
29.940975189208984,0.0,0.0,-0.36000001430511475,0.23999999463558197,-0.001090830541215837,0.0,0.0,0.0,-0.49789974093437195,1725891870.5784583,0.069335040584394,0.588559312540019,-0.0009395192829118335
29.940975189208984,0.0,0.0,-0.36000001430511475,0.23999999463558197,-0.001090830541215837,0.0,0.0,0.0,-0.49789974093437195,1725891870.58836,0.06934256844695415,0.5885545289148217,-0.0008472625431232679
29.940975189208984,0.0,0.0,-0.36000001430511475,0.23999999463558197,-0.001090830541215837,0.0,0.0,0.0,-0.49789974093437195,1725891870.5984342,0.06934313790898393,0.5885496668661812,-0.00101719539325138
29.940975189208984,0.0,0.0,-0.36000001430511475,0.23999999463558197,-0.001090830541215837,0.0,0.0,0.0,-0.49789974093437195,1725891870.6091473,0.06933073989704842,0.5885530474688433,-0.0009913691512973331
29.940975189208984,0.0,0.0,-0.36000001430511475,0.23999999463558197,-0.001090830541215837,0.0,0.0,0.0,-0.49789974093437195,1725891870.6184273,0.06934013955111475,0.5885567307054941,-0.0010682833799431123
29.940975189208984,0.0,0.0,-0.36000001430511475,0.23999999463558197,-0.001090830541215837,0.0,0.0,0.0,-0.49789974093437195,1725891870.6284702,0.0693307047958176,0.5885573283497659,-0.0009645242404766993
29.940975189208984,0.0,0.0,-0.36000001430511475,0.23999999463558197,-0.001090830541215837,0.0,0.0,0.0,-0.49789974093437195,1725891870.6384454,0.06933095923240623,0.588546340193706,-0.0009949355500106596
30.03787612915039,0.0,0.0,-0.4099999964237213,0.25,-0.0032724919728934765,0.0,0.0,0.0,-0.49789974093437195,1725891870.6484616,0.06933739893309343,0.5885551380735621,-0.0010441177029225715
30.03787612915039,0.0,0.0,-0.4099999964237213,0.25,-0.0032724919728934765,0.0,0.0,0.0,-0.49789974093437195,1725891870.6585307,0.06934608929741894,0.5885540958505885,-0.0009293967941127158
30.03787612915039,0.0,0.0,-0.4099999964237213,0.25,-0.0032724919728934765,0.0,0.0,0.0,-0.49789974093437195,1725891870.668402,0.06933333476928381,0.5885543701899124,-0.0009751123100277488
30.03787612915039,0.0,0.0,-0.4099999964237213,0.25,-0.0032724919728934765,0.0,0.0,0.0,-0.49789974093437195,1725891870.6784627,0.06933162761772285,0.5885660419649382,-0.0009568446947780478
30.03787612915039,0.0,0.0,-0.4099999964237213,0.25,-0.0032724919728934765,0.0,0.0,0.0,-0.49789974093437195,1725891870.6886234,0.06932899120434766,0.5885577946786411,-0.0008783939281532858
30.03787612915039,0.0,0.0,-0.4099999964237213,0.25,-0.0032724919728934765,0.0,0.0,0.0,-0.49789974093437195,1725891870.6989362,0.06934177199785235,0.5885637696597302,-0.001044021273712872
30.03787612915039,0.0,0.0,-0.4099999964237213,0.25,-0.0032724919728934765,0.0,0.0,0.0,-0.49789974093437195,1725891870.7085047,0.06933614068154895,0.5885606055317312,-0.0011472187128104086
30.03787612915039,0.0,0.0,-0.4099999964237213,0.25,-0.0032724919728934765,0.0,0.0,0.0,-0.49789974093437195,1725891870.7184281,0.06934113648438037,0.5885556877024426,-0.000997316272802695
30.03787612915039,0.0,0.0,-0.4099999964237213,0.25,-0.0032724919728934765,0.0,0.0,0.0,-0.49789974093437195,1725891870.7285202,0.06933254481680245,0.5885630590474143,-0.0011296509402122243
30.13434600830078,0.0,0.0,-0.44999998807907104,0.2199999988079071,-0.001090830541215837,0.0,0.0,0.0,-0.49789974093437195,1725891870.7383032,0.06933940529493993,0.5885640984955575,-0.0009716490920715315
30.13434600830078,0.0,0.0,-0.44999998807907104,0.2199999988079071,-0.001090830541215837,0.0,0.0,0.0,-0.49789974093437195,1725891870.7484891,0.06933592188032814,0.5885647822381131,-0.0010239681049224675
30.13434600830078,0.0,0.0,-0.44999998807907104,0.2199999988079071,-0.001090830541215837,0.0,0.0,0.0,-0.49789974093437195,1725891870.758444,0.06934612443909385,0.5885620111512289,-0.0009459426396002939
30.13434600830078,0.0,0.0,-0.44999998807907104,0.2199999988079071,-0.001090830541215837,0.0,0.0,0.0,-0.49789974093437195,1725891870.7684252,0.0693385443053649,0.5885691118961405,-0.001020586969341561
30.13434600830078,0.0,0.0,-0.44999998807907104,0.2199999988079071,-0.001090830541215837,0.0,0.0,0.0,-0.49789974093437195,1725891870.7784595,0.06934828025680015,0.5885653942222754,-0.0008826225484693274
30.13434600830078,0.0,0.0,-0.44999998807907104,0.2199999988079071,-0.001090830541215837,0.0,0.0,0.0,-0.49789974093437195,1725891870.7883973,0.06933415861420893,0.5885716129778792,-0.001028356987965324
30.13434600830078,0.0,0.0,-0.44999998807907104,0.2199999988079071,-0.001090830541215837,0.0,0.0,0.0,-0.49789974093437195,1725891870.7987607,0.06933335107504317,0.5885591237919249,-0.000986634710197922
30.13434600830078,0.0,0.0,-0.44999998807907104,0.2199999988079071,-0.001090830541215837,0.0,0.0,0.0,-0.49789974093437195,1725891870.8087487,0.06933455608100217,0.5885599764926462,-0.0009009581609084216
30.13434600830078,0.0,0.0,-0.44999998807907104,0.2199999988079071,-0.001090830541215837,0.0,0.0,0.0,-0.49789974093437195,1725891870.818437,0.06933740969073678,0.5885654728648586,-0.0009862699037222727
30.13434600830078,0.0,0.0,-0.44999998807907104,0.2199999988079071,-0.001090830541215837,0.0,0.0,0.0,-0.49789974093437195,1725891870.828184,0.06933895840167403,0.588563733644814,-0.0008536496432822508
30.235294342041016,0.0,0.0,-0.44999998807907104,0.18000000715255737,-0.001090830541215837,0.0,0.0,0.0,-0.49789974093437195,1725891870.8385854,0.06934017062638043,0.5885627508920215,-0.0009249056367901261
30.235294342041016,0.0,0.0,-0.44999998807907104,0.18000000715255737,-0.001090830541215837,0.0,0.0,0.0,-0.49789974093437195,1725891870.84833,0.06933491231397111,0.5885652820347914,-0.0009422398442112575
30.235294342041016,0.0,0.0,-0.44999998807907104,0.18000000715255737,-0.001090830541215837,0.0,0.0,0.0,-0.49789974093437195,1725891870.8583803,0.06933571007947743,0.5885652945870958,-0.0010445042382228474
30.235294342041016,0.0,0.0,-0.44999998807907104,0.18000000715255737,-0.001090830541215837,0.0,0.0,0.0,-0.49789974093437195,1725891870.8685012,0.06933550952922389,0.5885606680245953,-0.0009076074505679181
30.235294342041016,0.0,0.0,-0.44999998807907104,0.18000000715255737,-0.001090830541215837,0.0,0.0,0.0,-0.49789974093437195,1725891870.8783302,0.0693370861238067,0.5885687839012356,-0.0008673068759935776
30.235294342041016,0.0,0.0,-0.44999998807907104,0.18000000715255737,-0.001090830541215837,0.0,0.0,0.0,-0.49789974093437195,1725891870.8883104,0.06932819281634474,0.588562796790633,-0.0010266152627157578
30.235294342041016,0.0,0.0,-0.44999998807907104,0.18000000715255737,-0.001090830541215837,0.0,0.0,0.0,-0.49789974093437195,1725891870.898346,0.06933326673977504,0.5885616332441889,-0.000985391272390528
30.235294342041016,0.0,0.0,-0.44999998807907104,0.18000000715255737,-0.001090830541215837,0.0,0.0,0.0,-0.49789974093437195,1725891870.9086885,0.06933143621585632,0.5885590079820212,-0.0010820888469577628
30.235294342041016,0.0,0.0,-0.44999998807907104,0.18000000715255737,-0.001090830541215837,0.0,0.0,0.0,-0.49789974093437195,1725891870.918329,0.06933604329933792,0.588561454716881,-0.0009407168016930597
30.235294342041016,0.0,0.0,-0.44999998807907104,0.18000000715255737,-0.001090830541215837,0.0,0.0,0.0,-0.49789974093437195,1725891870.9284682,0.06934227611529471,0.5885557526382352,-0.0009852876909233052
30.33563804626465,0.0,0.0,-0.3700000047683716,0.23000000417232513,-0.001090830541215837,0.0,0.0,0.0,-0.49789974093437195,1725891870.9383447,0.06934040183420209,0.5885585873949546,-0.0010159060990906504
30.33563804626465,0.0,0.0,-0.3700000047683716,0.23000000417232513,-0.001090830541215837,0.0,0.0,0.0,-0.49789974093437195,1725891870.9483767,0.06934153050599778,0.5885553920335999,-0.000996874949214652
30.33563804626465,0.0,0.0,-0.3700000047683716,0.23000000417232513,-0.001090830541215837,0.0,0.0,0.0,-0.49789974093437195,1725891870.9582403,0.06934227259076045,0.5885656022302908,-0.0009244800731161648
30.33563804626465,0.0,0.0,-0.3700000047683716,0.23000000417232513,-0.001090830541215837,0.0,0.0,0.0,-0.49789974093437195,1725891870.9682193,0.06932432969327873,0.5885582313472776,-0.000998325055582105
30.33563804626465,0.0,0.0,-0.3700000047683716,0.23000000417232513,-0.001090830541215837,0.0,0.0,0.0,-0.49789974093437195,1725891870.9785361,0.06932719046538122,0.5885614286583845,-0.0009625277341504385
30.33563804626465,0.0,0.0,-0.3700000047683716,0.23000000417232513,-0.001090830541215837,0.0,0.0,0.0,-0.49789974093437195,1725891870.9883535,0.06932953832728306,0.5885664109644054,-0.0010047660115097745
30.33563804626465,0.0,0.0,-0.3700000047683716,0.23000000417232513,-0.001090830541215837,0.0,0.0,0.0,-0.49789974093437195,1725891870.9983976,0.06932523788186812,0.5885637554444211,-0.001028801621912365
30.33563804626465,0.0,0.0,-0.3700000047683716,0.23000000417232513,-0.001090830541215837,0.0,0.0,0.0,-0.49789974093437195,1725891871.008774,0.06933804131174419,0.588547351217092,-0.0009466064891124441
30.33563804626465,0.0,0.0,-0.3700000047683716,0.23000000417232513,-0.001090830541215837,0.0,0.0,0.0,-0.49789974093437195,1725891871.0180628,0.06934038218021911,0.5885566077112214,-0.0010205981481669869
30.33563804626465,0.0,0.0,-0.3700000047683716,0.23000000417232513,-0.001090830541215837,0.0,0.0,0.0,-0.49789974093437195,1725891871.0282865,0.0693340344837435,0.5885542286079676,-0.0009788052325909171
30.33563804626465,0.0,0.0,-0.3700000047683716,0.23000000417232513,-0.001090830541215837,0.0,0.0,0.0,-0.49789974093437195,1725891871.0382078,0.0693421090380057,0.5885557818955491,-0.0010594618826645342
30.436853408813477,0.0,0.0,-0.41999998688697815,0.23000000417232513,0.002181661082431674,0.0,0.0,0.0,-0.49789974093437195,1725891871.048267,0.06932516565300256,0.5885529347121886,-0.0009837469157220635
30.436853408813477,0.0,0.0,-0.41999998688697815,0.23000000417232513,0.002181661082431674,0.0,0.0,0.0,-0.49789974093437195,1725891871.0584564,0.06933703003837763,0.5885672160799831,-0.000987859859763231
30.436853408813477,0.0,0.0,-0.41999998688697815,0.23000000417232513,0.002181661082431674,0.0,0.0,0.0,-0.49789974093437195,1725891871.0686352,0.06933068996585293,0.5885506868497996,-0.0009508492806497579
30.436853408813477,0.0,0.0,-0.41999998688697815,0.23000000417232513,0.002181661082431674,0.0,0.0,0.0,-0.49789974093437195,1725891871.0783768,0.06933918872367285,0.588549589466102,-0.0009606980902217646
30.436853408813477,0.0,0.0,-0.41999998688697815,0.23000000417232513,0.002181661082431674,0.0,0.0,0.0,-0.49789974093437195,1725891871.0883648,0.06935881622507044,0.588561740063905,-0.0009400944096582041
30.436853408813477,0.0,0.0,-0.41999998688697815,0.23000000417232513,0.002181661082431674,0.0,0.0,0.0,-0.49789974093437195,1725891871.0983653,0.06934005150008561,0.588550864385558,-0.0011483130672784957
30.436853408813477,0.0,0.0,-0.41999998688697815,0.23000000417232513,0.002181661082431674,0.0,0.0,0.0,-0.49789974093437195,1725891871.1087143,0.06934165061693837,0.5885578474940905,-0.001016094437067384
30.436853408813477,0.0,0.0,-0.41999998688697815,0.23000000417232513,0.002181661082431674,0.0,0.0,0.0,-0.49789974093437195,1725891871.1183143,0.06933256496728532,0.5885552083539327,-0.0010057117226422202
30.436853408813477,0.0,0.0,-0.41999998688697815,0.23000000417232513,0.002181661082431674,0.0,0.0,0.0,-0.49789974093437195,1725891871.12858,0.06933361833485827,0.588565958121326,-0.0010165172790929506
30.5355281829834,0.0,0.0,-0.44999998807907104,0.20000000298023224,0.001090830541215837,0.0,0.0,0.0,-0.49789974093437195,1725891871.1383896,0.06932573282399479,0.5885595537332322,-0.0010129929642939083
30.5355281829834,0.0,0.0,-0.44999998807907104,0.20000000298023224,0.001090830541215837,0.0,0.0,0.0,-0.49789974093437195,1725891871.1482923,0.0693345108853752,0.5885621204792216,-0.000886691894582863
30.5355281829834,0.0,0.0,-0.44999998807907104,0.20000000298023224,0.001090830541215837,0.0,0.0,0.0,-0.49789974093437195,1725891871.1584072,0.06933653169016486,0.5885648025751616,-0.0009472276907023736
30.5355281829834,0.0,0.0,-0.44999998807907104,0.20000000298023224,0.001090830541215837,0.0,0.0,0.0,-0.49789974093437195,1725891871.168959,0.06934054730263046,0.5885526462234664,-0.000985696919387407
30.5355281829834,0.0,0.0,-0.44999998807907104,0.20000000298023224,0.001090830541215837,0.0,0.0,0.0,-0.49789974093437195,1725891871.1788068,0.06934573174288947,0.5885474293039396,-0.0010840543400938724
30.5355281829834,0.0,0.0,-0.44999998807907104,0.20000000298023224,0.001090830541215837,0.0,0.0,0.0,-0.49789974093437195,1725891871.1890287,0.06933934310218985,0.5885532279449569,-0.0009730046346018325
30.5355281829834,0.0,0.0,-0.44999998807907104,0.20000000298023224,0.001090830541215837,0.0,0.0,0.0,-0.49789974093437195,1725891871.19881,0.06933963801884653,0.5885530616606396,-0.00087695484798049
30.5355281829834,0.0,0.0,-0.44999998807907104,0.20000000298023224,0.001090830541215837,0.0,0.0,0.0,-0.49789974093437195,1725891871.2085629,0.0693376535530494,0.5885514127398084,-0.0010049601558460221
30.5355281829834,0.0,0.0,-0.44999998807907104,0.20000000298023224,0.001090830541215837,0.0,0.0,0.0,-0.49789974093437195,1725891871.2182374,0.06933629388291886,0.5885703100886337,-0.001044896571344707
30.5355281829834,0.0,0.0,-0.44999998807907104,0.20000000298023224,0.001090830541215837,0.0,0.0,0.0,-0.49789974093437195,1725891871.228332,0.06934133103538352,0.5885573475071826,-0.0009103197649449852
30.63203239440918,0.0,0.0,-0.4000000059604645,0.2199999988079071,-0.001090830541215837,0.0,0.0,0.0,-0.49789974093437195,1725891871.2382793,0.06934254238020693,0.5885466699832408,-0.0010612041907911976
30.63203239440918,0.0,0.0,-0.4000000059604645,0.2199999988079071,-0.001090830541215837,0.0,0.0,0.0,-0.49789974093437195,1725891871.2485008,0.06935018765844644,0.5885532591194065,-0.001047905591834209
30.63203239440918,0.0,0.0,-0.4000000059604645,0.2199999988079071,-0.001090830541215837,0.0,0.0,0.0,-0.49789974093437195,1725891871.2579699,0.06933959915256302,0.5885569386059781,-0.0009301256068890959
30.63203239440918,0.0,0.0,-0.4000000059604645,0.2199999988079071,-0.001090830541215837,0.0,0.0,0.0,-0.49789974093437195,1725891871.2685022,0.06933251168621998,0.5885552712023959,-0.0010263045777538782
30.63203239440918,0.0,0.0,-0.4000000059604645,0.2199999988079071,-0.001090830541215837,0.0,0.0,0.0,-0.49789974093437195,1725891871.2784429,0.06933791627320174,0.5885517103938328,-0.0009688223572068357
30.63203239440918,0.0,0.0,-0.4000000059604645,0.2199999988079071,-0.001090830541215837,0.0,0.0,0.0,-0.49789974093437195,1725891871.2883909,0.06933997133809314,0.5885517307574222,-0.0010402756328911536
30.63203239440918,0.0,0.0,-0.4000000059604645,0.2199999988079071,-0.001090830541215837,0.0,0.0,0.0,-0.49789974093437195,1725891871.298536,0.06933555465004078,0.5885569393226339,-0.0010417651431588843
30.63203239440918,0.0,0.0,-0.4000000059604645,0.2199999988079071,-0.001090830541215837,0.0,0.0,0.0,-0.49789974093437195,1725891871.3084025,0.06932853086637453,0.5885527852295822,-0.0008940084510335608
30.63203239440918,0.0,0.0,-0.4000000059604645,0.2199999988079071,-0.001090830541215837,0.0,0.0,0.0,-0.49789974093437195,1725891871.3182976,0.06933914838797972,0.5885529692810118,-0.0009901615861856495
30.63203239440918,0.0,0.0,-0.4000000059604645,0.2199999988079071,-0.001090830541215837,0.0,0.0,0.0,-0.49789974093437195,1725891871.3283348,0.069336126044333,0.5885522662283852,-0.0009530340557719481
30.732702255249023,0.0,0.0,-0.4099999964237213,0.20999999344348907,0.0,0.0,0.0,0.0,-0.49789974093437195,1725891871.338296,0.0693312829160091,0.5885586279225503,-0.0010395177474892105
30.732702255249023,0.0,0.0,-0.4099999964237213,0.20999999344348907,0.0,0.0,0.0,0.0,-0.49789974093437195,1725891871.3484962,0.06934265149289445,0.5885618548711,-0.000988811767857523
30.732702255249023,0.0,0.0,-0.4099999964237213,0.20999999344348907,0.0,0.0,0.0,0.0,-0.49789974093437195,1725891871.35829,0.0693350947990238,0.588563402887453,-0.0010992439352965901
30.732702255249023,0.0,0.0,-0.4099999964237213,0.20999999344348907,0.0,0.0,0.0,0.0,-0.49789974093437195,1725891871.3683424,0.06933056376739112,0.5885541400854739,-0.0010759186236209684
30.732702255249023,0.0,0.0,-0.4099999964237213,0.20999999344348907,0.0,0.0,0.0,0.0,-0.49789974093437195,1725891871.3785107,0.06933642628794469,0.5885554757757326,-0.0009703789446093121
30.732702255249023,0.0,0.0,-0.4099999964237213,0.20999999344348907,0.0,0.0,0.0,0.0,-0.49789974093437195,1725891871.3884943,0.06933383248589868,0.58856233516011,-0.0010285295147185937
30.732702255249023,0.0,0.0,-0.4099999964237213,0.20999999344348907,0.0,0.0,0.0,0.0,-0.49789974093437195,1725891871.3984637,0.0693305660285568,0.5885515545260636,-0.0009319976026157328
30.732702255249023,0.0,0.0,-0.4099999964237213,0.20999999344348907,0.0,0.0,0.0,0.0,-0.49789974093437195,1725891871.408602,0.06932409955404037,0.5885676516931567,-0.0009663761966599603
30.732702255249023,0.0,0.0,-0.4099999964237213,0.20999999344348907,0.0,0.0,0.0,0.0,-0.49789974093437195,1725891871.418422,0.06932704074218189,0.5885567188566607,-0.0009458856481815154
30.732702255249023,0.0,0.0,-0.4099999964237213,0.20999999344348907,0.0,0.0,0.0,0.0,-0.49789974093437195,1725891871.4283898,0.06932647312722741,0.5885553043581214,-0.0009675886372949522
30.831594467163086,0.0,0.0,-0.4399999976158142,0.23999999463558197,-0.001090830541215837,0.0,0.0,0.0,-0.49789974093437195,1725891871.4382515,0.06933748816830937,0.5885522768508649,-0.0009623195333654994
30.831594467163086,0.0,0.0,-0.4399999976158142,0.23999999463558197,-0.001090830541215837,0.0,0.0,0.0,-0.49789974093437195,1725891871.4484408,0.06933936593015776,0.5885598370750807,-0.0010675500954355267
30.831594467163086,0.0,0.0,-0.4399999976158142,0.23999999463558197,-0.001090830541215837,0.0,0.0,0.0,-0.49789974093437195,1725891871.458501,0.06933667279759989,0.5885670976721452,-0.0010570105142271408
30.831594467163086,0.0,0.0,-0.4399999976158142,0.23999999463558197,-0.001090830541215837,0.0,0.0,0.0,-0.49789974093437195,1725891871.4684486,0.06932308450165352,0.5885725717820871,-0.0009441063040017529
30.831594467163086,0.0,0.0,-0.4399999976158142,0.23999999463558197,-0.001090830541215837,0.0,0.0,0.0,-0.49789974093437195,1725891871.4784005,0.06931641707441424,0.5885579842657055,-0.0009615462685336413
30.831594467163086,0.0,0.0,-0.4399999976158142,0.23999999463558197,-0.001090830541215837,0.0,0.0,0.0,-0.49789974093437195,1725891871.4884956,0.06932401604589246,0.5885648489680919,-0.0010658559482125051
30.831594467163086,0.0,0.0,-0.4399999976158142,0.23999999463558197,-0.001090830541215837,0.0,0.0,0.0,-0.49789974093437195,1725891871.4984298,0.0693371661075638,0.5885558333457542,-0.0009157046258791898
30.831594467163086,0.0,0.0,-0.4399999976158142,0.23999999463558197,-0.001090830541215837,0.0,0.0,0.0,-0.49789974093437195,1725891871.5085297,0.06935048459902073,0.5885637079193305,-0.0010262752739738502
30.831594467163086,0.0,0.0,-0.4399999976158142,0.23999999463558197,-0.001090830541215837,0.0,0.0,0.0,-0.49789974093437195,1725891871.518012,0.06936011071387314,0.5885604854104534,-0.0009431942394594762
30.831594467163086,0.0,0.0,-0.4399999976158142,0.23999999463558197,-0.001090830541215837,0.0,0.0,0.0,-0.49789974093437195,1725891871.5283713,0.06934860183591457,0.5885596386906137,-0.0010962237425545711
30.9322566986084,0.0,0.0,-0.44999998807907104,0.20999999344348907,0.001090830541215837,0.0,0.0,0.0,-0.49789974093437195,1725891871.538318,0.06933254737640998,0.5885606501591284,-0.0010330582747186726
30.9322566986084,0.0,0.0,-0.44999998807907104,0.20999999344348907,0.001090830541215837,0.0,0.0,0.0,-0.49789974093437195,1725891871.5484512,0.06932858946405403,0.5885647373454778,-0.0008757501235497384
30.9322566986084,0.0,0.0,-0.44999998807907104,0.20999999344348907,0.001090830541215837,0.0,0.0,0.0,-0.49789974093437195,1725891871.5584311,0.06932215120863815,0.5885643461372786,-0.0009547656180085812
30.9322566986084,0.0,0.0,-0.44999998807907104,0.20999999344348907,0.001090830541215837,0.0,0.0,0.0,-0.49789974093437195,1725891871.5684123,0.06932061057512061,0.5885643694945173,-0.0009076275449457543
30.9322566986084,0.0,0.0,-0.44999998807907104,0.20999999344348907,0.001090830541215837,0.0,0.0,0.0,-0.49789974093437195,1725891871.578469,0.069332894038514,0.5885559316132162,-0.0009367492696561289
30.9322566986084,0.0,0.0,-0.44999998807907104,0.20999999344348907,0.001090830541215837,0.0,0.0,0.0,-0.49789974093437195,1725891871.5884895,0.06934349119681774,0.5885672830551124,-0.0009846161524913026
30.9322566986084,0.0,0.0,-0.44999998807907104,0.20999999344348907,0.001090830541215837,0.0,0.0,0.0,-0.49789974093437195,1725891871.5984383,0.0693409890953864,0.588559492076726,-0.0011068119475439297
30.9322566986084,0.0,0.0,-0.44999998807907104,0.20999999344348907,0.001090830541215837,0.0,0.0,0.0,-0.49789974093437195,1725891871.608702,0.06934066352396276,0.5885549660227996,-0.0012022651078415283
30.9322566986084,0.0,0.0,-0.44999998807907104,0.20999999344348907,0.001090830541215837,0.0,0.0,0.0,-0.49789974093437195,1725891871.6184332,0.0693318708824738,0.588558828764148,-0.001053246742928371
30.9322566986084,0.0,0.0,-0.44999998807907104,0.20999999344348907,0.001090830541215837,0.0,0.0,0.0,-0.49789974093437195,1725891871.628374,0.06933010492634752,0.5885669476600116,-0.0009227046511013972
31.032787322998047,0.0,0.0,-0.4000000059604645,0.20999999344348907,-0.004363322164863348,0.0,0.0,0.0,-0.49789974093437195,1725891871.6385458,0.06931443834155031,0.5885717372222152,-0.0009222211512715199
31.032787322998047,0.0,0.0,-0.4000000059604645,0.20999999344348907,-0.004363322164863348,0.0,0.0,0.0,-0.49789974093437195,1725891871.6484377,0.06931865018199287,0.5885650049839041,-0.0008061077983507015
31.032787322998047,0.0,0.0,-0.4000000059604645,0.20999999344348907,-0.004363322164863348,0.0,0.0,0.0,-0.49789974093437195,1725891871.6589508,0.06933429366499927,0.5885506821906334,-0.001032724150185856
31.032787322998047,0.0,0.0,-0.4000000059604645,0.20999999344348907,-0.004363322164863348,0.0,0.0,0.0,-0.49789974093437195,1725891871.6692338,0.06935059313923453,0.588556528943909,-0.0010247977103520814
31.032787322998047,0.0,0.0,-0.4000000059604645,0.20999999344348907,-0.004363322164863348,0.0,0.0,0.0,-0.49789974093437195,1725891871.6789134,0.0693611348749699,0.5885526616927395,-0.0011266861068047866
31.032787322998047,0.0,0.0,-0.4000000059604645,0.20999999344348907,-0.004363322164863348,0.0,0.0,0.0,-0.49789974093437195,1725891871.6889434,0.06935140093084866,0.5885479569909325,-0.0009833152138122585
31.032787322998047,0.0,0.0,-0.4000000059604645,0.20999999344348907,-0.004363322164863348,0.0,0.0,0.0,-0.49789974093437195,1725891871.698781,0.06932607458186843,0.5885604192823933,-0.0010671524393892349
31.032787322998047,0.0,0.0,-0.4000000059604645,0.20999999344348907,-0.004363322164863348,0.0,0.0,0.0,-0.49789974093437195,1725891871.7085726,0.06932074385991027,0.5885646024012033,-0.0009521501757066655
31.032787322998047,0.0,0.0,-0.4000000059604645,0.20999999344348907,-0.004363322164863348,0.0,0.0,0.0,-0.49789974093437195,1725891871.7182415,0.06930798164664895,0.5885704817863082,-0.0009135448980196093
31.032787322998047,0.0,0.0,-0.4000000059604645,0.20999999344348907,-0.004363322164863348,0.0,0.0,0.0,-0.49789974093437195,1725891871.7281263,0.06931424415352579,0.5885612333569153,-0.0008580883085977526
31.135496139526367,0.0,0.0,-0.3799999952316284,0.20000000298023224,-0.001090830541215837,0.0,0.0,0.0,-0.49789974093437195,1725891871.7383425,0.06933001582823307,0.5885466713295427,-0.001016505347342839
31.135496139526367,0.0,0.0,-0.3799999952316284,0.20000000298023224,-0.001090830541215837,0.0,0.0,0.0,-0.49789974093437195,1725891871.7484872,0.06933718346179595,0.5885483732555084,-0.0009707264889669465
31.135496139526367,0.0,0.0,-0.3799999952316284,0.20000000298023224,-0.001090830541215837,0.0,0.0,0.0,-0.49789974093437195,1725891871.7584763,0.06935462384035701,0.5885577910563653,-0.0009542762039523901
31.135496139526367,0.0,0.0,-0.3799999952316284,0.20000000298023224,-0.001090830541215837,0.0,0.0,0.0,-0.49789974093437195,1725891871.7684665,0.06933950895987699,0.5885599815001098,-0.001088020665902471
31.135496139526367,0.0,0.0,-0.3799999952316284,0.20000000298023224,-0.001090830541215837,0.0,0.0,0.0,-0.49789974093437195,1725891871.7785077,0.06933898689663821,0.5885583528792369,-0.0009677678230218832
31.135496139526367,0.0,0.0,-0.3799999952316284,0.20000000298023224,-0.001090830541215837,0.0,0.0,0.0,-0.49789974093437195,1725891871.7884436,0.06932839117007443,0.5885629490529951,-0.000955848070723498
31.135496139526367,0.0,0.0,-0.3799999952316284,0.20000000298023224,-0.001090830541215837,0.0,0.0,0.0,-0.49789974093437195,1725891871.7984638,0.06932914558231548,0.5885638940372249,-0.000944342096775645
31.135496139526367,0.0,0.0,-0.3799999952316284,0.20000000298023224,-0.001090830541215837,0.0,0.0,0.0,-0.49789974093437195,1725891871.808719,0.06933173546945978,0.5885553300470048,-0.0009667702181787439
31.135496139526367,0.0,0.0,-0.3799999952316284,0.20000000298023224,-0.001090830541215837,0.0,0.0,0.0,-0.49789974093437195,1725891871.8182492,0.06933554361903876,0.5885619954530108,-0.0008951194881608006
31.135496139526367,0.0,0.0,-0.3799999952316284,0.20000000298023224,-0.001090830541215837,0.0,0.0,0.0,-0.49789974093437195,1725891871.8283067,0.06933934339727557,0.5885574119995337,-0.001109968527449346
31.23200035095215,0.0,0.0,-0.4099999964237213,0.2199999988079071,-0.0032724919728934765,0.0,0.0,0.0,-0.49789974093437195,1725891871.8383224,0.06932678406243781,0.588559932530435,-0.0009403798826629835
31.23200035095215,0.0,0.0,-0.4099999964237213,0.2199999988079071,-0.0032724919728934765,0.0,0.0,0.0,-0.49789974093437195,1725891871.848441,0.06933252982339147,0.5885555108280808,-0.0009665561254585516
31.23200035095215,0.0,0.0,-0.4099999964237213,0.2199999988079071,-0.0032724919728934765,0.0,0.0,0.0,-0.49789974093437195,1725891871.8584123,0.06934067150722169,0.588557721105936,-0.0010694530627772202
31.23200035095215,0.0,0.0,-0.4099999964237213,0.2199999988079071,-0.0032724919728934765,0.0,0.0,0.0,-0.49789974093437195,1725891871.8684049,0.06933904003886326,0.5885422025071756,-0.0010129184704264897
31.23200035095215,0.0,0.0,-0.4099999964237213,0.2199999988079071,-0.0032724919728934765,0.0,0.0,0.0,-0.49789974093437195,1725891871.8784177,0.06934550906510477,0.5885522163222591,-0.0009362839404038023
31.23200035095215,0.0,0.0,-0.4099999964237213,0.2199999988079071,-0.0032724919728934765,0.0,0.0,0.0,-0.49789974093437195,1725891871.8883085,0.06932735504766006,0.5885622925696976,-0.0008909569102024876
31.23200035095215,0.0,0.0,-0.4099999964237213,0.2199999988079071,-0.0032724919728934765,0.0,0.0,0.0,-0.49789974093437195,1725891871.8985527,0.06933282331561898,0.5885757787207792,-0.000857233221465219
31.23200035095215,0.0,0.0,-0.4099999964237213,0.2199999988079071,-0.0032724919728934765,0.0,0.0,0.0,-0.49789974093437195,1725891871.9085772,0.06932249549684191,0.5885700802823449,-0.0009696728199452447
31.23200035095215,0.0,0.0,-0.4099999964237213,0.2199999988079071,-0.0032724919728934765,0.0,0.0,0.0,-0.49789974093437195,1725891871.9183135,0.06932443838720556,0.5885586282677838,-0.0008990401459900935
31.23200035095215,0.0,0.0,-0.4099999964237213,0.2199999988079071,-0.0032724919728934765,0.0,0.0,0.0,-0.49789974093437195,1725891871.92832,0.06934035817237715,0.5885489953083892,-0.0009242063900416081
31.33341407775879,0.0,0.0,-0.41999998688697815,0.20000000298023224,0.0,0.0,0.0,0.0,-0.49789974093437195,1725891871.9384007,0.06935452930936875,0.5885405959230536,-0.0010234723315518366
31.33341407775879,0.0,0.0,-0.41999998688697815,0.20000000298023224,0.0,0.0,0.0,0.0,-0.49789974093437195,1725891871.9484642,0.06935149686854868,0.588557773637825,-0.000983220442281929
31.33341407775879,0.0,0.0,-0.41999998688697815,0.20000000298023224,0.0,0.0,0.0,0.0,-0.49789974093437195,1725891871.9589815,0.06934250111727201,0.5885652580897964,-0.0008706387580247087
31.33341407775879,0.0,0.0,-0.41999998688697815,0.20000000298023224,0.0,0.0,0.0,0.0,-0.49789974093437195,1725891871.9683797,0.06933114437905351,0.5885653607712261,-0.0009125859737192307
31.33341407775879,0.0,0.0,-0.41999998688697815,0.20000000298023224,0.0,0.0,0.0,0.0,-0.49789974093437195,1725891871.9787848,0.06932760082223996,0.5885634138409659,-0.0010252169715841478
31.33341407775879,0.0,0.0,-0.41999998688697815,0.20000000298023224,0.0,0.0,0.0,0.0,-0.49789974093437195,1725891871.988985,0.06933432351682173,0.5885508620676865,-0.0009955470514405346
31.33341407775879,0.0,0.0,-0.41999998688697815,0.20000000298023224,0.0,0.0,0.0,0.0,-0.49789974093437195,1725891871.9990118,0.0693298810322869,0.5885584189775875,-0.0009274192160835451
31.33341407775879,0.0,0.0,-0.41999998688697815,0.20000000298023224,0.0,0.0,0.0,0.0,-0.49789974093437195,1725891872.0086055,0.06932037977813164,0.5885481901866185,-0.0009076074284899205
31.33341407775879,0.0,0.0,-0.41999998688697815,0.20000000298023224,0.0,0.0,0.0,0.0,-0.49789974093437195,1725891872.0183303,0.06933118358525003,0.5885583196867585,-0.0009132057573479202
31.33341407775879,0.0,0.0,-0.41999998688697815,0.20000000298023224,0.0,0.0,0.0,0.0,-0.49789974093437195,1725891872.028085,0.06933017491859654,0.5885543987805928,-0.001026322706363624
31.4345645904541,0.0,0.0,-0.4000000059604645,0.1899999976158142,-0.002181661082431674,0.0,0.0,0.0,-0.49789974093437195,1725891872.0380523,0.0693318066514661,0.5885565009264322,-0.0010656745502755284
31.4345645904541,0.0,0.0,-0.4000000059604645,0.1899999976158142,-0.002181661082431674,0.0,0.0,0.0,-0.49789974093437195,1725891872.0484405,0.06933539189311605,0.5885551570208766,-0.0010119899703411323
31.4345645904541,0.0,0.0,-0.4000000059604645,0.1899999976158142,-0.002181661082431674,0.0,0.0,0.0,-0.49789974093437195,1725891872.0581582,0.0693414518206681,0.5885492331629404,-0.0010566515813939022
31.4345645904541,0.0,0.0,-0.4000000059604645,0.1899999976158142,-0.002181661082431674,0.0,0.0,0.0,-0.49789974093437195,1725891872.0683963,0.06933281741917133,0.5885688539246436,-0.0009598712549040931
31.4345645904541,0.0,0.0,-0.4000000059604645,0.1899999976158142,-0.002181661082431674,0.0,0.0,0.0,-0.49789974093437195,1725891872.0784664,0.06932814700260531,0.5885747805528591,-0.0008821282420403706
31.4345645904541,0.0,0.0,-0.4000000059604645,0.1899999976158142,-0.002181661082431674,0.0,0.0,0.0,-0.49789974093437195,1725891872.0883007,0.0693166411337204,0.5885586556046433,-0.0010420026133971746
31.4345645904541,0.0,0.0,-0.4000000059604645,0.1899999976158142,-0.002181661082431674,0.0,0.0,0.0,-0.49789974093437195,1725891872.0989206,0.06932729909077448,0.5885726847990089,-0.0009740672798922152
31.4345645904541,0.0,0.0,-0.4000000059604645,0.1899999976158142,-0.002181661082431674,0.0,0.0,0.0,-0.49789974093437195,1725891872.1087036,0.06932510370471864,0.5885536063105347,-0.0009475759161435848
31.4345645904541,0.0,0.0,-0.4000000059604645,0.1899999976158142,-0.002181661082431674,0.0,0.0,0.0,-0.49789974093437195,1725891872.1179786,0.06934430660921723,0.5885634942101385,-0.0009673204406810811
31.4345645904541,0.0,0.0,-0.4000000059604645,0.1899999976158142,-0.002181661082431674,0.0,0.0,0.0,-0.49789974093437195,1725891872.1282725,0.06935244459998034,0.5885530857499411,-0.0011240607473952113
31.4345645904541,0.0,0.0,-0.4000000059604645,0.1899999976158142,-0.002181661082431674,0.0,0.0,0.0,-0.49789974093437195,1725891872.138237,0.06935013199736412,0.5885519220153735,-0.0010643564135661015
31.534639358520508,0.0,0.0,-0.3499999940395355,0.2199999988079071,-0.0032724919728934765,0.0,0.0,0.0,-0.49789974093437195,1725891872.1483405,0.06933546948134954,0.5885598436877867,-0.0010386372712488758
31.534639358520508,0.0,0.0,-0.3499999940395355,0.2199999988079071,-0.0032724919728934765,0.0,0.0,0.0,-0.49789974093437195,1725891872.158473,0.06931266189479551,0.5885708346688036,-0.0007787160935256435
31.534639358520508,0.0,0.0,-0.3499999940395355,0.2199999988079071,-0.0032724919728934765,0.0,0.0,0.0,-0.49789974093437195,1725891872.1686106,0.06931089000582022,0.588566899593392,-0.000989037441285444
31.534639358520508,0.0,0.0,-0.3499999940395355,0.2199999988079071,-0.0032724919728934765,0.0,0.0,0.0,-0.49789974093437195,1725891872.178462,0.06932244682878225,0.5885664500656483,-0.0010942359200025837
31.534639358520508,0.0,0.0,-0.3499999940395355,0.2199999988079071,-0.0032724919728934765,0.0,0.0,0.0,-0.49789974093437195,1725891872.1884108,0.06934046616394225,0.5885640799784506,-0.0009973770605911463
31.534639358520508,0.0,0.0,-0.3499999940395355,0.2199999988079071,-0.0032724919728934765,0.0,0.0,0.0,-0.49789974093437195,1725891872.1990016,0.0693460286141415,0.5885527877323004,-0.0009567616935582659
31.534639358520508,0.0,0.0,-0.3499999940395355,0.2199999988079071,-0.0032724919728934765,0.0,0.0,0.0,-0.49789974093437195,1725891872.2086384,0.06934301396673843,0.5885608223657747,-0.0010781166092478749
31.534639358520508,0.0,0.0,-0.3499999940395355,0.2199999988079071,-0.0032724919728934765,0.0,0.0,0.0,-0.49789974093437195,1725891872.2184083,0.06933554916996013,0.5885642723016443,-0.0009631634095225798
31.534639358520508,0.0,0.0,-0.3499999940395355,0.2199999988079071,-0.0032724919728934765,0.0,0.0,0.0,-0.49789974093437195,1725891872.2283578,0.06931916880319042,0.5885669038209168,-0.0008991707784992822
31.6342716217041,0.0,0.0,-0.30000001192092896,0.2199999988079071,0.001090830541215837,0.0,0.0,0.0,-0.49789974093437195,1725891872.2383766,0.06933538438667504,0.5885660718845206,-0.0009710497035777847
31.6342716217041,0.0,0.0,-0.30000001192092896,0.2199999988079071,0.001090830541215837,0.0,0.0,0.0,-0.49789974093437195,1725891872.2482073,0.06933162928089642,0.5885629590065371,-0.0010323220279348292
31.6342716217041,0.0,0.0,-0.30000001192092896,0.2199999988079071,0.001090830541215837,0.0,0.0,0.0,-0.49789974093437195,1725891872.2584069,0.06934654495938766,0.58856822994878,-0.001080436780459389
31.6342716217041,0.0,0.0,-0.30000001192092896,0.2199999988079071,0.001090830541215837,0.0,0.0,0.0,-0.49789974093437195,1725891872.2685013,0.06934316089103335,0.5885692582871663,-0.0010138625300438286
31.6342716217041,0.0,0.0,-0.30000001192092896,0.2199999988079071,0.001090830541215837,0.0,0.0,0.0,-0.49789974093437195,1725891872.2784243,0.06934451815747095,0.5885679361372597,-0.0010179224913134043
31.6342716217041,0.0,0.0,-0.30000001192092896,0.2199999988079071,0.001090830541215837,0.0,0.0,0.0,-0.49789974093437195,1725891872.2884111,0.06933818406105416,0.5885613571870393,-0.0009283211179039304
31.6342716217041,0.0,0.0,-0.30000001192092896,0.2199999988079071,0.001090830541215837,0.0,0.0,0.0,-0.49789974093437195,1725891872.298782,0.06934276562018922,0.588572293736221,-0.0011407233945536467
31.6342716217041,0.0,0.0,-0.30000001192092896,0.2199999988079071,0.001090830541215837,0.0,0.0,0.0,-0.49789974093437195,1725891872.3088198,0.06934301816341683,0.5885569838882424,-0.0011042612119133567
31.6342716217041,0.0,0.0,-0.30000001192092896,0.2199999988079071,0.001090830541215837,0.0,0.0,0.0,-0.49789974093437195,1725891872.3184788,0.06934026457523222,0.588562362345301,-0.0008932262364962281
31.6342716217041,0.0,0.0,-0.30000001192092896,0.2199999988079071,0.001090830541215837,0.0,0.0,0.0,-0.49789974093437195,1725891872.3283582,0.06933890548313469,0.5885687154546988,-0.0009927400786208845
31.733373641967773,0.0,0.0,-0.4300000071525574,0.1899999976158142,-0.0032724919728934765,0.0,0.0,0.0,-0.49789974093437195,1725891872.3383853,0.06933997601673603,0.5885663362914231,-0.0010856437622606965
31.733373641967773,0.0,0.0,-0.4300000071525574,0.1899999976158142,-0.0032724919728934765,0.0,0.0,0.0,-0.49789974093437195,1725891872.3484092,0.06932538563681717,0.58856494408308,-0.000899631579858098
31.733373641967773,0.0,0.0,-0.4300000071525574,0.1899999976158142,-0.0032724919728934765,0.0,0.0,0.0,-0.49789974093437195,1725891872.3585057,0.0693263542786076,0.5885581019336292,-0.0010421900666826732
31.733373641967773,0.0,0.0,-0.4300000071525574,0.1899999976158142,-0.0032724919728934765,0.0,0.0,0.0,-0.49789974093437195,1725891872.3684013,0.06933606198487555,0.5885609220027005,-0.0009124874831117462
31.733373641967773,0.0,0.0,-0.4300000071525574,0.1899999976158142,-0.0032724919728934765,0.0,0.0,0.0,-0.49789974093437195,1725891872.3785117,0.06933933895276045,0.5885550221937899,-0.0010121868904692467
31.733373641967773,0.0,0.0,-0.4300000071525574,0.1899999976158142,-0.0032724919728934765,0.0,0.0,0.0,-0.49789974093437195,1725891872.3895726,0.06934282852160478,0.588555137469904,-0.0009951331861103967
31.733373641967773,0.0,0.0,-0.4300000071525574,0.1899999976158142,-0.0032724919728934765,0.0,0.0,0.0,-0.49789974093437195,1725891872.3989196,0.06933084252638373,0.5885646671304601,-0.001024551375436758
31.733373641967773,0.0,0.0,-0.4300000071525574,0.1899999976158142,-0.0032724919728934765,0.0,0.0,0.0,-0.49789974093437195,1725891872.408756,0.06933103068361793,0.5885587167233599,-0.0009519472666696087
31.733373641967773,0.0,0.0,-0.4300000071525574,0.1899999976158142,-0.0032724919728934765,0.0,0.0,0.0,-0.49789974093437195,1725891872.418606,0.06932561715099815,0.5885634397350168,-0.0009310656009290587
31.733373641967773,0.0,0.0,-0.4300000071525574,0.1899999976158142,-0.0032724919728934765,0.0,0.0,0.0,-0.49789974093437195,1725891872.4280152,0.06933216412442518,0.5885500851767901,-0.0009794489476375957
31.83574867248535,0.0,0.0,-0.4099999964237213,0.20999999344348907,0.001090830541215837,0.0,0.0,0.0,-0.49789974093437195,1725891872.4380445,0.0693258045999315,0.5885592078957428,-0.0009246363053407384
31.83574867248535,0.0,0.0,-0.4099999964237213,0.20999999344348907,0.001090830541215837,0.0,0.0,0.0,-0.49789974093437195,1725891872.44834,0.06933706709011062,0.5885600888758367,-0.0009635797181965403
31.83574867248535,0.0,0.0,-0.4099999964237213,0.20999999344348907,0.001090830541215837,0.0,0.0,0.0,-0.49789974093437195,1725891872.458421,0.06932405471818541,0.5885624368223111,-0.0008665702387780787
31.83574867248535,0.0,0.0,-0.4099999964237213,0.20999999344348907,0.001090830541215837,0.0,0.0,0.0,-0.49789974093437195,1725891872.4687073,0.0693261198501953,0.588559105292468,-0.001003080159352186
31.83574867248535,0.0,0.0,-0.4099999964237213,0.20999999344348907,0.001090830541215837,0.0,0.0,0.0,-0.49789974093437195,1725891872.4783504,0.069329526916775,0.5885501119833063,-0.0009983638579736428
31.83574867248535,0.0,0.0,-0.4099999964237213,0.20999999344348907,0.001090830541215837,0.0,0.0,0.0,-0.49789974093437195,1725891872.4883401,0.06932274972171584,0.5885530697959263,-0.001102084316742335
31.83574867248535,0.0,0.0,-0.4099999964237213,0.20999999344348907,0.001090830541215837,0.0,0.0,0.0,-0.49789974093437195,1725891872.4984941,0.06931279573867634,0.5885560008618139,-0.0009412264773182619
31.83574867248535,0.0,0.0,-0.4099999964237213,0.20999999344348907,0.001090830541215837,0.0,0.0,0.0,-0.49789974093437195,1725891872.5085027,0.06932318415871079,0.5885582580238807,-0.0009272969643587758
31.83574867248535,0.0,0.0,-0.4099999964237213,0.20999999344348907,0.001090830541215837,0.0,0.0,0.0,-0.49789974093437195,1725891872.5185297,0.069311927186252,0.5885648007305452,-0.0009200818431976916
31.83574867248535,0.0,0.0,-0.4099999964237213,0.20999999344348907,0.001090830541215837,0.0,0.0,0.0,-0.49789974093437195,1725891872.5280426,0.06932000536630709,0.5885599861138566,-0.0010104255427188938
31.933809280395508,0.0,0.0,-0.3499999940395355,0.20000000298023224,0.002181661082431674,0.0,0.0,0.0,-0.49789974093437195,1725891872.5382586,0.06931759996242823,0.5885579958490879,-0.0009058366103043954
31.933809280395508,0.0,0.0,-0.3499999940395355,0.20000000298023224,0.002181661082431674,0.0,0.0,0.0,-0.49789974093437195,1725891872.5484536,0.0693277404587813,0.5885649735669035,-0.0009456807615073318
31.933809280395508,0.0,0.0,-0.3499999940395355,0.20000000298023224,0.002181661082431674,0.0,0.0,0.0,-0.49789974093437195,1725891872.5584078,0.06933188152458701,0.5885627266044886,-0.001033524353709225
31.933809280395508,0.0,0.0,-0.3499999940395355,0.20000000298023224,0.002181661082431674,0.0,0.0,0.0,-0.49789974093437195,1725891872.5686603,0.06933655950508229,0.5885628532975448,-0.0010299511728124955
31.933809280395508,0.0,0.0,-0.3499999940395355,0.20000000298023224,0.002181661082431674,0.0,0.0,0.0,-0.49789974093437195,1725891872.5786664,0.06933763684282325,0.588563389625225,-0.0008852027074757476
31.933809280395508,0.0,0.0,-0.3499999940395355,0.20000000298023224,0.002181661082431674,0.0,0.0,0.0,-0.49789974093437195,1725891872.5884109,0.06933599631619904,0.5885618125398538,-0.0010674891046054214
31.933809280395508,0.0,0.0,-0.3499999940395355,0.20000000298023224,0.002181661082431674,0.0,0.0,0.0,-0.49789974093437195,1725891872.5987349,0.06932326636905524,0.5885668399330924,-0.00102899434031251
31.933809280395508,0.0,0.0,-0.3499999940395355,0.20000000298023224,0.002181661082431674,0.0,0.0,0.0,-0.49789974093437195,1725891872.608524,0.06933553523850422,0.5885570143707306,-0.001105791540277769
31.933809280395508,0.0,0.0,-0.3499999940395355,0.20000000298023224,0.002181661082431674,0.0,0.0,0.0,-0.49789974093437195,1725891872.6183066,0.069332782409054,0.5885676292485245,-0.0009345670765893257
31.933809280395508,0.0,0.0,-0.3499999940395355,0.20000000298023224,0.002181661082431674,0.0,0.0,0.0,-0.49789974093437195,1725891872.6282458,0.06933469680131518,0.588566179716759,-0.0010515061472525916
32.03105545043945,0.0,0.0,-0.4399999976158142,0.1899999976158142,-0.001090830541215837,0.0,0.0,0.0,-0.49789974093437195,1725891872.63844,0.06934732735736053,0.5885668325124754,-0.0009820747742884752
32.03105545043945,0.0,0.0,-0.4399999976158142,0.1899999976158142,-0.001090830541215837,0.0,0.0,0.0,-0.49789974093437195,1725891872.6482658,0.06933796203304954,0.588566085969018,-0.0010323187270242283
32.03105545043945,0.0,0.0,-0.4399999976158142,0.1899999976158142,-0.001090830541215837,0.0,0.0,0.0,-0.49789974093437195,1725891872.6583743,0.06932858856672433,0.5885693456325072,-0.0009235149992698991
32.03105545043945,0.0,0.0,-0.4399999976158142,0.1899999976158142,-0.001090830541215837,0.0,0.0,0.0,-0.49789974093437195,1725891872.6682904,0.06933500507916707,0.5885680315704944,-0.0011221501209397653
32.03105545043945,0.0,0.0,-0.4399999976158142,0.1899999976158142,-0.001090830541215837,0.0,0.0,0.0,-0.49789974093437195,1725891872.6784096,0.06934408906207563,0.588564973116235,-0.0009892041572109396
32.03105545043945,0.0,0.0,-0.4399999976158142,0.1899999976158142,-0.001090830541215837,0.0,0.0,0.0,-0.49789974093437195,1725891872.688495,0.06933715530518947,0.5885619605719447,-0.0009369447164676126
32.03105545043945,0.0,0.0,-0.4399999976158142,0.1899999976158142,-0.001090830541215837,0.0,0.0,0.0,-0.49789974093437195,1725891872.6984773,0.06934767704219884,0.5885580841916106,-0.001090500480568199
32.03105545043945,0.0,0.0,-0.4399999976158142,0.1899999976158142,-0.001090830541215837,0.0,0.0,0.0,-0.49789974093437195,1725891872.7083962,0.06934551661352996,0.5885650178542446,-0.0009960423664604427
32.03105545043945,0.0,0.0,-0.4399999976158142,0.1899999976158142,-0.001090830541215837,0.0,0.0,0.0,-0.49789974093437195,1725891872.7182748,0.06934011492961847,0.5885677653320396,-0.0010236362720871127
32.03105545043945,0.0,0.0,-0.4399999976158142,0.1899999976158142,-0.001090830541215837,0.0,0.0,0.0,-0.49789974093437195,1725891872.7283769,0.0693364091400105,0.5885637651737421,-0.001039983190595214
32.132328033447266,0.0,0.0,-0.3199999928474426,0.2800000011920929,0.002181661082431674,0.0,0.0,0.0,-0.49789974093437195,1725891872.7382464,0.06934316412253615,0.5885688697895212,-0.0010348657135217031
32.132328033447266,0.0,0.0,-0.3199999928474426,0.2800000011920929,0.002181661082431674,0.0,0.0,0.0,-0.49789974093437195,1725891872.7483947,0.06934396574870882,0.5885570893266043,-0.001154997382461151
32.132328033447266,0.0,0.0,-0.3199999928474426,0.2800000011920929,0.002181661082431674,0.0,0.0,0.0,-0.49789974093437195,1725891872.7588284,0.06933524984855527,0.5885656502219838,-0.0009527034801215556
32.132328033447266,0.0,0.0,-0.3199999928474426,0.2800000011920929,0.002181661082431674,0.0,0.0,0.0,-0.49789974093437195,1725891872.7690713,0.06933894761555408,0.5885647769666355,-0.0010136506009892127
32.132328033447266,0.0,0.0,-0.3199999928474426,0.2800000011920929,0.002181661082431674,0.0,0.0,0.0,-0.49789974093437195,1725891872.778857,0.06933531634859412,0.5885692848240478,-0.0009306547988719828
32.132328033447266,0.0,0.0,-0.3199999928474426,0.2800000011920929,0.002181661082431674,0.0,0.0,0.0,-0.49789974093437195,1725891872.7889838,0.06933349511144918,0.5885578902626541,-0.0008684717407447073
32.132328033447266,0.0,0.0,-0.3199999928474426,0.2800000011920929,0.002181661082431674,0.0,0.0,0.0,-0.49789974093437195,1725891872.7988803,0.06933549215510468,0.5885686719104788,-0.0009760503770940003
32.132328033447266,0.0,0.0,-0.3199999928474426,0.2800000011920929,0.002181661082431674,0.0,0.0,0.0,-0.49789974093437195,1725891872.808539,0.06933750047658817,0.5885579087909732,-0.0011035646961608952
32.132328033447266,0.0,0.0,-0.3199999928474426,0.2800000011920929,0.002181661082431674,0.0,0.0,0.0,-0.49789974093437195,1725891872.8183336,0.06933395228306491,0.5885562767239079,-0.0010176330385398605
32.132328033447266,0.0,0.0,-0.3199999928474426,0.2800000011920929,0.002181661082431674,0.0,0.0,0.0,-0.49789974093437195,1725891872.8282228,0.06932560485290673,0.5885560159616529,-0.0010838499385372726
32.23128890991211,0.0,0.0,-0.3700000047683716,0.27000001072883606,-0.001090830541215837,0.0,0.0,0.0,-0.49789974093437195,1725891872.8383281,0.06932977651463637,0.5885611585186182,-0.0010722083831461095
32.23128890991211,0.0,0.0,-0.3700000047683716,0.27000001072883606,-0.001090830541215837,0.0,0.0,0.0,-0.49789974093437195,1725891872.848351,0.06932935289305747,0.588561209949428,-0.0009807402826592846
32.23128890991211,0.0,0.0,-0.3700000047683716,0.27000001072883606,-0.001090830541215837,0.0,0.0,0.0,-0.49789974093437195,1725891872.8578534,0.06933105693551235,0.5885589940504174,-0.0009513239443677197
32.23128890991211,0.0,0.0,-0.3700000047683716,0.27000001072883606,-0.001090830541215837,0.0,0.0,0.0,-0.49789974093437195,1725891872.867949,0.06933495668395116,0.5885577231053719,-0.0008644514828664545
32.23128890991211,0.0,0.0,-0.3700000047683716,0.27000001072883606,-0.001090830541215837,0.0,0.0,0.0,-0.49789974093437195,1725891872.8778856,0.06932219322203445,0.5885601355773209,-0.0009800767938372562
32.23128890991211,0.0,0.0,-0.3700000047683716,0.27000001072883606,-0.001090830541215837,0.0,0.0,0.0,-0.49789974093437195,1725891872.888047,0.06932447954401724,0.5885581887603268,-0.0009551034004216817
32.23128890991211,0.0,0.0,-0.3700000047683716,0.27000001072883606,-0.001090830541215837,0.0,0.0,0.0,-0.49789974093437195,1725891872.898082,0.06933342483483704,0.5885504225021994,-0.0009400227768771256
32.23128890991211,0.0,0.0,-0.3700000047683716,0.27000001072883606,-0.001090830541215837,0.0,0.0,0.0,-0.49789974093437195,1725891872.9083862,0.0693242943444848,0.5885525405110188,-0.0010712901749338037
32.23128890991211,0.0,0.0,-0.3700000047683716,0.27000001072883606,-0.001090830541215837,0.0,0.0,0.0,-0.49789974093437195,1725891872.9183118,0.0693331063659155,0.588560413213535,-0.0010256714975839791
32.23128890991211,0.0,0.0,-0.3700000047683716,0.27000001072883606,-0.001090830541215837,0.0,0.0,0.0,-0.49789974093437195,1725891872.9283726,0.06933631298494054,0.588562160677498,-0.0009787642143813534
32.335018157958984,0.0,0.0,-0.41999998688697815,0.2199999988079071,-0.001090830541215837,0.0,0.0,0.0,-0.49789974093437195,1725891872.938385,0.06931902963283845,0.5885525557932464,-0.0010231746376973775
32.335018157958984,0.0,0.0,-0.41999998688697815,0.2199999988079071,-0.001090830541215837,0.0,0.0,0.0,-0.49789974093437195,1725891872.9483056,0.06932777697102384,0.5885625434626699,-0.0009383949482930509
32.335018157958984,0.0,0.0,-0.41999998688697815,0.2199999988079071,-0.001090830541215837,0.0,0.0,0.0,-0.49789974093437195,1725891872.9582534,0.0693148775694289,0.5885611049990808,-0.00099161888000514
32.335018157958984,0.0,0.0,-0.41999998688697815,0.2199999988079071,-0.001090830541215837,0.0,0.0,0.0,-0.49789974093437195,1725891872.9683533,0.06933285932107537,0.5885583945391719,-0.000958027865338943
32.335018157958984,0.0,0.0,-0.41999998688697815,0.2199999988079071,-0.001090830541215837,0.0,0.0,0.0,-0.49789974093437195,1725891872.9787836,0.06933688976535998,0.5885553260742641,-0.0009260109304802153
32.335018157958984,0.0,0.0,-0.41999998688697815,0.2199999988079071,-0.001090830541215837,0.0,0.0,0.0,-0.49789974093437195,1725891872.988947,0.06933582113811931,0.5885563907201589,-0.0009893437633729935
32.335018157958984,0.0,0.0,-0.41999998688697815,0.2199999988079071,-0.001090830541215837,0.0,0.0,0.0,-0.49789974093437195,1725891872.9987862,0.06934253668803592,0.5885591952921287,-0.0011111314113850825
32.335018157958984,0.0,0.0,-0.41999998688697815,0.2199999988079071,-0.001090830541215837,0.0,0.0,0.0,-0.49789974093437195,1725891873.008703,0.06933465299075757,0.5885588146409886,-0.0009250064553176858
32.335018157958984,0.0,0.0,-0.41999998688697815,0.2199999988079071,-0.001090830541215837,0.0,0.0,0.0,-0.49789974093437195,1725891873.0183277,0.06931873230562696,0.5885668194394912,-0.0008676616278592808
32.335018157958984,0.0,0.0,-0.41999998688697815,0.2199999988079071,-0.001090830541215837,0.0,0.0,0.0,-0.49789974093437195,1725891873.028228,0.06932776346001827,0.5885660967294525,-0.0009214131888410515
32.335018157958984,0.0,0.0,-0.41999998688697815,0.2199999988079071,-0.001090830541215837,0.0,0.0,0.0,-0.49789974093437195,1725891873.0383475,0.0693264941723191,0.5885694756226405,-0.000976386025200353
32.4383544921875,0.0,0.0,-0.4399999976158142,0.2199999988079071,0.001090830541215837,0.0,0.0,0.0,-0.49789974093437195,1725891873.04829,0.06933595117214063,0.5885721648257061,-0.0009799829773833161
32.4383544921875,0.0,0.0,-0.4399999976158142,0.2199999988079071,0.001090830541215837,0.0,0.0,0.0,-0.49789974093437195,1725891873.0585172,0.06934798095724218,0.5885660398198395,-0.000944856332390905
32.4383544921875,0.0,0.0,-0.4399999976158142,0.2199999988079071,0.001090830541215837,0.0,0.0,0.0,-0.49789974093437195,1725891873.068363,0.06933927183258465,0.588566977284503,-0.0009907026712371457
32.4383544921875,0.0,0.0,-0.4399999976158142,0.2199999988079071,0.001090830541215837,0.0,0.0,0.0,-0.49789974093437195,1725891873.0784519,0.06935206640148471,0.5885704498835632,-0.0009470922219541728
32.4383544921875,0.0,0.0,-0.4399999976158142,0.2199999988079071,0.001090830541215837,0.0,0.0,0.0,-0.49789974093437195,1725891873.0884564,0.06932356625872793,0.5885626110406412,-0.0009837759611706865
32.4383544921875,0.0,0.0,-0.4399999976158142,0.2199999988079071,0.001090830541215837,0.0,0.0,0.0,-0.49789974093437195,1725891873.09846,0.06933550813979873,0.5885817148542138,-0.0008927758376502643
32.4383544921875,0.0,0.0,-0.4399999976158142,0.2199999988079071,0.001090830541215837,0.0,0.0,0.0,-0.49789974093437195,1725891873.108591,0.06931906369833683,0.5885697302645821,-0.0011002123652773409
32.4383544921875,0.0,0.0,-0.4399999976158142,0.2199999988079071,0.001090830541215837,0.0,0.0,0.0,-0.49789974093437195,1725891873.1186774,0.06934658761334904,0.5885730377579825,-0.0010940747163921717
32.4383544921875,0.0,0.0,-0.4399999976158142,0.2199999988079071,0.001090830541215837,0.0,0.0,0.0,-0.49789974093437195,1725891873.1283185,0.06932861060182427,0.5885640415913362,-0.001147390918491412
32.4383544921875,0.0,0.0,-0.4399999976158142,0.2199999988079071,0.001090830541215837,0.0,0.0,0.0,-0.49789974093437195,1725891873.1382828,0.06933860949205276,0.5885677999688069,-0.0009006529450421483
32.53759765625,0.0,0.0,-0.4300000071525574,0.20000000298023224,0.001090830541215837,0.0,0.0,0.0,-0.49789974093437195,1725891873.1483178,0.069350477710497,0.5885715595072573,-0.000946291180260193
32.53759765625,0.0,0.0,-0.4300000071525574,0.20000000298023224,0.001090830541215837,0.0,0.0,0.0,-0.49789974093437195,1725891873.1584141,0.06934354137618176,0.5885718094969344,-0.001015596416654853
32.53759765625,0.0,0.0,-0.4300000071525574,0.20000000298023224,0.001090830541215837,0.0,0.0,0.0,-0.49789974093437195,1725891873.1684382,0.06932995035111554,0.5885732559103976,-0.000992938055328971
32.53759765625,0.0,0.0,-0.4300000071525574,0.20000000298023224,0.001090830541215837,0.0,0.0,0.0,-0.49789974093437195,1725891873.1784449,0.06932506723574267,0.5885761626977589,-0.0009851850249665134
32.53759765625,0.0,0.0,-0.4300000071525574,0.20000000298023224,0.001090830541215837,0.0,0.0,0.0,-0.49789974093437195,1725891873.1886702,0.06932621709067506,0.5885743016526453,-0.0008347319668918121
32.53759765625,0.0,0.0,-0.4300000071525574,0.20000000298023224,0.001090830541215837,0.0,0.0,0.0,-0.49789974093437195,1725891873.1983738,0.06932787175006187,0.5885819150035346,-0.0009003221167264253
32.53759765625,0.0,0.0,-0.4300000071525574,0.20000000298023224,0.001090830541215837,0.0,0.0,0.0,-0.49789974093437195,1725891873.208624,0.0693393843754225,0.5885719418094785,-0.0010598499507475565
32.53759765625,0.0,0.0,-0.4300000071525574,0.20000000298023224,0.001090830541215837,0.0,0.0,0.0,-0.49789974093437195,1725891873.2185686,0.06933054379370872,0.5885675785996166,-0.0009329134361917001
32.53759765625,0.0,0.0,-0.4300000071525574,0.20000000298023224,0.001090830541215837,0.0,0.0,0.0,-0.49789974093437195,1725891873.2283885,0.06934464028996318,0.5885667460588144,-0.0010408006829378809
32.63330078125,0.0,0.0,-0.3799999952316284,0.25999999046325684,0.002181661082431674,0.0,0.0,0.0,-0.49789974093437195,1725891873.2383993,0.06933896985214102,0.5885715342510549,-0.0010769447815259763
32.63330078125,0.0,0.0,-0.3799999952316284,0.25999999046325684,0.002181661082431674,0.0,0.0,0.0,-0.49789974093437195,1725891873.2483735,0.06933007675219476,0.5885738124587054,-0.000998182590727759
32.63330078125,0.0,0.0,-0.3799999952316284,0.25999999046325684,0.002181661082431674,0.0,0.0,0.0,-0.49789974093437195,1725891873.25844,0.06933937295885607,0.5885734268345473,-0.0009027497059773234
32.63330078125,0.0,0.0,-0.3799999952316284,0.25999999046325684,0.002181661082431674,0.0,0.0,0.0,-0.49789974093437195,1725891873.2687802,0.06932210352653415,0.5885725088649738,-0.0008896501488998669
32.63330078125,0.0,0.0,-0.3799999952316284,0.25999999046325684,0.002181661082431674,0.0,0.0,0.0,-0.49789974093437195,1725891873.2786527,0.06933354760698979,0.5885673138178712,-0.0009885847758999173
32.63330078125,0.0,0.0,-0.3799999952316284,0.25999999046325684,0.002181661082431674,0.0,0.0,0.0,-0.49789974093437195,1725891873.288634,0.06932725059060155,0.5885735704155127,-0.001058876819237655
32.63330078125,0.0,0.0,-0.3799999952316284,0.25999999046325684,0.002181661082431674,0.0,0.0,0.0,-0.49789974093437195,1725891873.2987068,0.06933593369183197,0.5885752924736751,-0.0009713153705870266
32.63330078125,0.0,0.0,-0.3799999952316284,0.25999999046325684,0.002181661082431674,0.0,0.0,0.0,-0.49789974093437195,1725891873.308702,0.06934149316975768,0.5885716828936333,-0.0009749429382395134
32.63330078125,0.0,0.0,-0.3799999952316284,0.25999999046325684,0.002181661082431674,0.0,0.0,0.0,-0.49789974093437195,1725891873.3184004,0.06934076605265656,0.5885668176673833,-0.0009767254342498695
32.63330078125,0.0,0.0,-0.3799999952316284,0.25999999046325684,0.002181661082431674,0.0,0.0,0.0,-0.49789974093437195,1725891873.328386,0.0693319238910682,0.5885710045300022,-0.0009298481492592137
32.73459243774414,0.0,0.0,-0.41999998688697815,0.23000000417232513,0.002181661082431674,0.0,0.0,0.0,-0.49789974093437195,1725891873.3382943,0.06933279544934057,0.588573468255886,-0.0010287876492470493
32.73459243774414,0.0,0.0,-0.41999998688697815,0.23000000417232513,0.002181661082431674,0.0,0.0,0.0,-0.49789974093437195,1725891873.348381,0.06932956145855812,0.588569649961419,-0.0010018038218389401
32.73459243774414,0.0,0.0,-0.41999998688697815,0.23000000417232513,0.002181661082431674,0.0,0.0,0.0,-0.49789974093437195,1725891873.3584657,0.06933720707937654,0.5885707359981576,-0.00082822173973024
32.73459243774414,0.0,0.0,-0.41999998688697815,0.23000000417232513,0.002181661082431674,0.0,0.0,0.0,-0.49789974093437195,1725891873.3686185,0.06933596124269105,0.588568654397039,-0.000834898505389641
32.73459243774414,0.0,0.0,-0.41999998688697815,0.23000000417232513,0.002181661082431674,0.0,0.0,0.0,-0.49789974093437195,1725891873.3788352,0.06932365835599448,0.588561034378472,-0.0009308954045654476
32.73459243774414,0.0,0.0,-0.41999998688697815,0.23000000417232513,0.002181661082431674,0.0,0.0,0.0,-0.49789974093437195,1725891873.388912,0.06933533595035311,0.5885710253485066,-0.0010351924074672495
32.73459243774414,0.0,0.0,-0.41999998688697815,0.23000000417232513,0.002181661082431674,0.0,0.0,0.0,-0.49789974093437195,1725891873.3987842,0.06933156441012407,0.5885649405792376,-0.0009687505897134491
32.73459243774414,0.0,0.0,-0.41999998688697815,0.23000000417232513,0.002181661082431674,0.0,0.0,0.0,-0.49789974093437195,1725891873.4088795,0.06934400636943844,0.5885636518414047,-0.0010037169452253598
32.73459243774414,0.0,0.0,-0.41999998688697815,0.23000000417232513,0.002181661082431674,0.0,0.0,0.0,-0.49789974093437195,1725891873.4185348,0.06934870832358077,0.5885637856829746,-0.001001816054900277
32.73459243774414,0.0,0.0,-0.41999998688697815,0.23000000417232513,0.002181661082431674,0.0,0.0,0.0,-0.49789974093437195,1725891873.4281063,0.06933183722240391,0.5885632580827936,-0.0009284174998620427
32.83176803588867,0.0,0.0,-0.44999998807907104,0.1899999976158142,0.0,0.0,0.0,0.0,-0.49789974093437195,1725891873.4382195,0.06932684747029468,0.5885786275745956,-0.0009052452870254104
32.83176803588867,0.0,0.0,-0.44999998807907104,0.1899999976158142,0.0,0.0,0.0,0.0,-0.49789974093437195,1725891873.4483137,0.06931930837731809,0.5885640417787182,-0.0009025810616047277
32.83176803588867,0.0,0.0,-0.44999998807907104,0.1899999976158142,0.0,0.0,0.0,0.0,-0.49789974093437195,1725891873.458386,0.06932927687484454,0.5885755140498989,-0.0010552645309269556
32.83176803588867,0.0,0.0,-0.44999998807907104,0.1899999976158142,0.0,0.0,0.0,0.0,-0.49789974093437195,1725891873.4683533,0.06934017283752701,0.5885695444591076,-0.0009984790937475892
32.83176803588867,0.0,0.0,-0.44999998807907104,0.1899999976158142,0.0,0.0,0.0,0.0,-0.49789974093437195,1725891873.4783463,0.06935214600078649,0.5885645835144636,-0.0010210267223461373
32.83176803588867,0.0,0.0,-0.44999998807907104,0.1899999976158142,0.0,0.0,0.0,0.0,-0.49789974093437195,1725891873.4884596,0.0693473408123045,0.5885611049310098,-0.0010199972702243196
32.83176803588867,0.0,0.0,-0.44999998807907104,0.1899999976158142,0.0,0.0,0.0,0.0,-0.49789974093437195,1725891873.4983318,0.0693334976102922,0.5885623917006819,-0.000953607066559599
32.83176803588867,0.0,0.0,-0.44999998807907104,0.1899999976158142,0.0,0.0,0.0,0.0,-0.49789974093437195,1725891873.5086455,0.06933079592078377,0.5885561053074093,-0.0009226108406817402
32.83176803588867,0.0,0.0,-0.44999998807907104,0.1899999976158142,0.0,0.0,0.0,0.0,-0.49789974093437195,1725891873.518466,0.0693240438042782,0.5885571906272905,-0.000996042215121238
32.83176803588867,0.0,0.0,-0.44999998807907104,0.1899999976158142,0.0,0.0,0.0,0.0,-0.49789974093437195,1725891873.5287614,0.0693324200170643,0.588568187193441,-0.0009166786650417945
32.934791564941406,0.0,0.0,-0.4300000071525574,0.20000000298023224,0.0,0.0,0.0,0.0,-0.49789974093437195,1725891873.538354,0.06934073726489809,0.5885630371750878,-0.0010196351013935536
32.934791564941406,0.0,0.0,-0.4300000071525574,0.20000000298023224,0.0,0.0,0.0,0.0,-0.49789974093437195,1725891873.5483704,0.06934446392707487,0.5885680907759804,-0.0010459073553805418
32.934791564941406,0.0,0.0,-0.4300000071525574,0.20000000298023224,0.0,0.0,0.0,0.0,-0.49789974093437195,1725891873.558518,0.06934463931987167,0.588564003870849,-0.0009396526809568518
32.934791564941406,0.0,0.0,-0.4300000071525574,0.20000000298023224,0.0,0.0,0.0,0.0,-0.49789974093437195,1725891873.5683491,0.06933005415026555,0.5885602969064588,-0.0009903860906562945
32.934791564941406,0.0,0.0,-0.4300000071525574,0.20000000298023224,0.0,0.0,0.0,0.0,-0.49789974093437195,1725891873.5785632,0.06932466369868945,0.5885651201063902,-0.0009307319459664033
32.934791564941406,0.0,0.0,-0.4300000071525574,0.20000000298023224,0.0,0.0,0.0,0.0,-0.49789974093437195,1725891873.588379,0.06932773877442597,0.5885613423812359,-0.0008509872630755786
32.934791564941406,0.0,0.0,-0.4300000071525574,0.20000000298023224,0.0,0.0,0.0,0.0,-0.49789974093437195,1725891873.5983632,0.06933526139670525,0.5885604184851346,-0.0009763783324872017
32.934791564941406,0.0,0.0,-0.4300000071525574,0.20000000298023224,0.0,0.0,0.0,0.0,-0.49789974093437195,1725891873.6086066,0.06934564903667739,0.5885652950288558,-0.0009405702880535065
32.934791564941406,0.0,0.0,-0.4300000071525574,0.20000000298023224,0.0,0.0,0.0,0.0,-0.49789974093437195,1725891873.6184063,0.0693345618861687,0.5885669051530817,-0.0009773163964733236
32.934791564941406,0.0,0.0,-0.4300000071525574,0.20000000298023224,0.0,0.0,0.0,0.0,-0.49789974093437195,1725891873.6283374,0.0693333966221254,0.5885565249612306,-0.0010735621881603728
33.03255844116211,0.0,0.0,-0.3799999952316284,0.25999999046325684,-0.002181661082431674,0.0,0.0,0.0,-0.49789974093437195,1725891873.6382914,0.06933300044328314,0.5885652301150662,-0.0009437334854728708
33.03255844116211,0.0,0.0,-0.3799999952316284,0.25999999046325684,-0.002181661082431674,0.0,0.0,0.0,-0.49789974093437195,1725891873.6484187,0.06932657045266352,0.5885622900220864,-0.0010173782564620731
33.03255844116211,0.0,0.0,-0.3799999952316284,0.25999999046325684,-0.002181661082431674,0.0,0.0,0.0,-0.49789974093437195,1725891873.6584892,0.06933472851657234,0.5885697058487772,-0.0009586197621892563
33.03255844116211,0.0,0.0,-0.3799999952316284,0.25999999046325684,-0.002181661082431674,0.0,0.0,0.0,-0.49789974093437195,1725891873.6687655,0.06934025382814277,0.5885668811468955,-0.0009728704109748511
33.03255844116211,0.0,0.0,-0.3799999952316284,0.25999999046325684,-0.002181661082431674,0.0,0.0,0.0,-0.49789974093437195,1725891873.6783695,0.06934931773842869,0.5885656781237302,-0.0009636132723001174
33.03255844116211,0.0,0.0,-0.3799999952316284,0.25999999046325684,-0.002181661082431674,0.0,0.0,0.0,-0.49789974093437195,1725891873.6884623,0.06934156886328843,0.5885668903466755,-0.0010479699462796468
33.03255844116211,0.0,0.0,-0.3799999952316284,0.25999999046325684,-0.002181661082431674,0.0,0.0,0.0,-0.49789974093437195,1725891873.6983786,0.0693319551296518,0.5885673026482796,-0.0009113924178294669
33.03255844116211,0.0,0.0,-0.3799999952316284,0.25999999046325684,-0.002181661082431674,0.0,0.0,0.0,-0.49789974093437195,1725891873.7085562,0.06932353816195176,0.588563195868993,-0.0009523868166732051
33.03255844116211,0.0,0.0,-0.3799999952316284,0.25999999046325684,-0.002181661082431674,0.0,0.0,0.0,-0.49789974093437195,1725891873.7186627,0.06933359917711138,0.5885666405056672,-0.0009825300292362928
33.03255844116211,0.0,0.0,-0.3799999952316284,0.25999999046325684,-0.002181661082431674,0.0,0.0,0.0,-0.49789974093437195,1725891873.7283115,0.0693335521486126,0.5885672327195843,-0.0009216796792196616
33.13123321533203,0.0,0.0,-0.41999998688697815,0.20999999344348907,-0.001090830541215837,0.0,0.0,0.0,-0.49789974093437195,1725891873.7381475,0.06933882653438755,0.5885645775871137,-0.001046109067000839
33.13123321533203,0.0,0.0,-0.41999998688697815,0.20999999344348907,-0.001090830541215837,0.0,0.0,0.0,-0.49789974093437195,1725891873.7483149,0.06933843222838793,0.5885698231996144,-0.000999186049315835
33.13123321533203,0.0,0.0,-0.41999998688697815,0.20999999344348907,-0.001090830541215837,0.0,0.0,0.0,-0.49789974093437195,1725891873.7584424,0.06933691573018697,0.5885689076621045,-0.001050353201096557
33.13123321533203,0.0,0.0,-0.41999998688697815,0.20999999344348907,-0.001090830541215837,0.0,0.0,0.0,-0.49789974093437195,1725891873.7684069,0.06933855929019589,0.588575186776998,-0.0010352945359582788
33.13123321533203,0.0,0.0,-0.41999998688697815,0.20999999344348907,-0.001090830541215837,0.0,0.0,0.0,-0.49789974093437195,1725891873.7789156,0.06932243403382388,0.5885761425068242,-0.0009198058640281125
33.13123321533203,0.0,0.0,-0.41999998688697815,0.20999999344348907,-0.001090830541215837,0.0,0.0,0.0,-0.49789974093437195,1725891873.7889516,0.06932932323097334,0.5885683725859808,-0.0010678598512452856
33.13123321533203,0.0,0.0,-0.41999998688697815,0.20999999344348907,-0.001090830541215837,0.0,0.0,0.0,-0.49789974093437195,1725891873.7988124,0.06933832994441691,0.5885741263550546,-0.0010067502415642836
33.13123321533203,0.0,0.0,-0.41999998688697815,0.20999999344348907,-0.001090830541215837,0.0,0.0,0.0,-0.49789974093437195,1725891873.8087287,0.06934621439815092,0.5885715635667672,-0.0009799109973112165
33.13123321533203,0.0,0.0,-0.41999998688697815,0.20999999344348907,-0.001090830541215837,0.0,0.0,0.0,-0.49789974093437195,1725891873.8180342,0.06933239583155977,0.5885711895786078,-0.0010090665839435724
33.13123321533203,0.0,0.0,-0.41999998688697815,0.20999999344348907,-0.001090830541215837,0.0,0.0,0.0,-0.49789974093437195,1725891873.8283432,0.06934196104776624,0.5885739514804945,-0.0010279277648027713
33.23176574707031,0.0,0.0,-0.44999998807907104,0.2199999988079071,-0.0032724919728934765,0.0,0.0,0.0,-0.49789974093437195,1725891873.8383512,0.06933336207916944,0.5885727614730916,-0.0009468884846983227
33.23176574707031,0.0,0.0,-0.44999998807907104,0.2199999988079071,-0.0032724919728934765,0.0,0.0,0.0,-0.49789974093437195,1725891873.8484383,0.06933781185420093,0.5885649156045457,-0.0009703704453390058
33.23176574707031,0.0,0.0,-0.44999998807907104,0.2199999988079071,-0.0032724919728934765,0.0,0.0,0.0,-0.49789974093437195,1725891873.8590252,0.0693236779200813,0.588569245538803,-0.0009949686864668317
33.23176574707031,0.0,0.0,-0.44999998807907104,0.2199999988079071,-0.0032724919728934765,0.0,0.0,0.0,-0.49789974093437195,1725891873.869217,0.06933455482220673,0.5885763236536623,-0.0010572857989919106
33.23176574707031,0.0,0.0,-0.44999998807907104,0.2199999988079071,-0.0032724919728934765,0.0,0.0,0.0,-0.49789974093437195,1725891873.878966,0.0693359192947456,0.588569113461427,-0.0008588648943409586
33.23176574707031,0.0,0.0,-0.44999998807907104,0.2199999988079071,-0.0032724919728934765,0.0,0.0,0.0,-0.49789974093437195,1725891873.888681,0.06934026244447487,0.5885753842307567,-0.0009230605686050612
33.23176574707031,0.0,0.0,-0.44999998807907104,0.2199999988079071,-0.0032724919728934765,0.0,0.0,0.0,-0.49789974093437195,1725891873.8988073,0.06934033694598377,0.5885629330688639,-0.0011347731725937752
33.23176574707031,0.0,0.0,-0.44999998807907104,0.2199999988079071,-0.0032724919728934765,0.0,0.0,0.0,-0.49789974093437195,1725891873.9087274,0.06933586614703015,0.5885654106964299,-0.0009744449944317329
33.23176574707031,0.0,0.0,-0.44999998807907104,0.2199999988079071,-0.0032724919728934765,0.0,0.0,0.0,-0.49789974093437195,1725891873.9181674,0.0693379600341502,0.5885737582455035,-0.001004313637517195
33.23176574707031,0.0,0.0,-0.44999998807907104,0.2199999988079071,-0.0032724919728934765,0.0,0.0,0.0,-0.49789974093437195,1725891873.9283445,0.06933061367232454,0.5885649058103163,-0.0010866731909951923
33.33094787597656,0.0,0.0,-0.4399999976158142,0.20999999344348907,-0.001090830541215837,0.0,0.0,0.0,-0.49789974093437195,1725891873.9383426,0.06933115836403492,0.5885728400976494,-0.0010447711797479183
33.33094787597656,0.0,0.0,-0.4399999976158142,0.20999999344348907,-0.001090830541215837,0.0,0.0,0.0,-0.49789974093437195,1725891873.9483898,0.06933419640696137,0.5885698754950771,-0.001033292068892802
33.33094787597656,0.0,0.0,-0.4399999976158142,0.20999999344348907,-0.001090830541215837,0.0,0.0,0.0,-0.49789974093437195,1725891873.9583838,0.06933140442777609,0.5885624397215649,-0.0010172629981908886
33.33094787597656,0.0,0.0,-0.4399999976158142,0.20999999344348907,-0.001090830541215837,0.0,0.0,0.0,-0.49789974093437195,1725891873.9684389,0.06933575130254004,0.5885697398015414,-0.0009665955275729858
33.33094787597656,0.0,0.0,-0.4399999976158142,0.20999999344348907,-0.001090830541215837,0.0,0.0,0.0,-0.49789974093437195,1725891873.9785314,0.06933593576849682,0.5885716678989061,-0.0011106240998910502
33.33094787597656,0.0,0.0,-0.4399999976158142,0.20999999344348907,-0.001090830541215837,0.0,0.0,0.0,-0.49789974093437195,1725891873.9888713,0.06933642809750279,0.588565188389582,-0.0009334443274160004
33.33094787597656,0.0,0.0,-0.4399999976158142,0.20999999344348907,-0.001090830541215837,0.0,0.0,0.0,-0.49789974093437195,1725891873.9984665,0.06933688837005471,0.5885691058845672,-0.0010272792009823183
33.33094787597656,0.0,0.0,-0.4399999976158142,0.20999999344348907,-0.001090830541215837,0.0,0.0,0.0,-0.49789974093437195,1725891874.008551,0.06934315700742652,0.5885650621191337,-0.0008855192698876565
33.33094787597656,0.0,0.0,-0.4399999976158142,0.20999999344348907,-0.001090830541215837,0.0,0.0,0.0,-0.49789974093437195,1725891874.0183864,0.06933439242929139,0.5885629400438173,-0.0009268684825380876
33.33094787597656,0.0,0.0,-0.4399999976158142,0.20999999344348907,-0.001090830541215837,0.0,0.0,0.0,-0.49789974093437195,1725891874.0283358,0.06933117934717982,0.5885660522226592,-0.001129312950589603
33.42784881591797,0.0,0.0,-0.4300000071525574,0.18000000715255737,-0.001090830541215837,0.0,1.0,0.0,-0.49789974093437195,1725891874.0383813,0.06933149132974298,0.5885663614697454,-0.0010034815687485694
33.42784881591797,0.0,0.0,-0.4300000071525574,0.18000000715255737,-0.001090830541215837,0.0,1.0,0.0,-0.49789974093437195,1725891874.0483618,0.06933393788500229,0.5885758232296483,-0.000998934854603579
33.42784881591797,0.0,0.0,-0.4300000071525574,0.18000000715255737,-0.001090830541215837,0.0,1.0,0.0,-0.49789974093437195,1725891874.0584424,0.06932727879784047,0.5885702736748522,-0.000968233694718697
33.42784881591797,0.0,0.0,-0.4300000071525574,0.18000000715255737,-0.001090830541215837,0.0,1.0,0.0,-0.49789974093437195,1725891874.0686133,0.0693263716471456,0.5885727604323168,-0.0009412989701759433
33.42784881591797,0.0,0.0,-0.4300000071525574,0.18000000715255737,-0.001090830541215837,0.0,1.0,0.0,-0.49789974093437195,1725891874.0783358,0.06933416786028715,0.588573533832465,-0.0008450731492430193
33.42784881591797,0.0,0.0,-0.4300000071525574,0.18000000715255737,-0.001090830541215837,0.0,1.0,0.0,-0.49789974093437195,1725891874.088309,0.06934274516931983,0.588565785993865,-0.0009729749113594642
33.42784881591797,0.0,0.0,-0.4300000071525574,0.18000000715255737,-0.001090830541215837,0.0,1.0,0.0,-0.49789974093437195,1725891874.0983493,0.06934223651117642,0.5885699623540145,-0.0009493565416534472
33.42784881591797,0.0,0.0,-0.4300000071525574,0.18000000715255737,-0.001090830541215837,0.0,1.0,0.0,-0.49789974093437195,1725891874.1084545,0.0693377419756972,0.588575636174146,-0.000988583963981086
33.42784881591797,0.0,0.0,-0.4300000071525574,0.18000000715255737,-0.001090830541215837,0.0,1.0,0.0,-0.49789974093437195,1725891874.1183643,0.06933383669539882,0.5885700783899215,-0.0010161106688268585
33.42784881591797,0.0,0.0,-0.4300000071525574,0.18000000715255737,-0.001090830541215837,0.0,1.0,0.0,-0.49789974093437195,1725891874.1282985,0.06932758736822635,0.5885699017209496,-0.000962759891747408
33.52899932861328,0.0,0.0,-0.38999998569488525,0.23999999463558197,0.0,0.0,1.0,0.0,-0.49789974093437195,1725891874.1382992,0.06932410387948566,0.5885644615390224,-0.0008872188421996394
33.52899932861328,0.0,0.0,-0.38999998569488525,0.23999999463558197,0.0,0.0,1.0,0.0,-0.49789974093437195,1725891874.148329,0.06932758876513145,0.5885714334408114,-0.0009850789248186888
33.52899932861328,0.0,0.0,-0.38999998569488525,0.23999999463558197,0.0,0.0,1.0,0.0,-0.49789974093437195,1725891874.158389,0.06934504555568624,0.5885608129471136,-0.000968065203287626
33.52899932861328,0.0,0.0,-0.38999998569488525,0.23999999463558197,0.0,0.0,1.0,0.0,-0.49789974093437195,1725891874.1684124,0.06934116848224861,0.5885684741576787,-0.0009524471269954367
33.52899932861328,0.0,0.0,-0.38999998569488525,0.23999999463558197,0.0,0.0,1.0,0.0,-0.49789974093437195,1725891874.1786082,0.06933434949559776,0.5885615069798138,-0.0009353505634473447
33.52899932861328,0.0,0.0,-0.38999998569488525,0.23999999463558197,0.0,0.0,1.0,0.0,-0.49789974093437195,1725891874.1885302,0.06933278443609517,0.5885626549077175,-0.0009561913302063801
33.52899932861328,0.0,0.0,-0.38999998569488525,0.23999999463558197,0.0,0.0,1.0,0.0,-0.49789974093437195,1725891874.1984847,0.069337847310037,0.5885618186425878,-0.001051151665448439
33.52899932861328,0.0,0.0,-0.38999998569488525,0.23999999463558197,0.0,0.0,1.0,0.0,-0.49789974093437195,1725891874.2079773,0.06933057888984404,0.588555734375689,-0.0009802480841682116
33.52899932861328,0.0,0.0,-0.38999998569488525,0.23999999463558197,0.0,0.0,1.0,0.0,-0.49789974093437195,1725891874.2183955,0.06934399728198454,0.5885618416053455,-0.0010181266000704376
33.52899932861328,0.0,0.0,-0.38999998569488525,0.23999999463558197,0.0,0.0,1.0,0.0,-0.49789974093437195,1725891874.2283893,0.06933671184244365,0.5885632975246188,-0.0009879834267765796
33.52899932861328,0.0,0.0,-0.38999998569488525,0.23999999463558197,0.0,0.0,1.0,0.0,-0.49789974093437195,1725891874.2383614,0.06933240675113539,0.5885683580966609,-0.0009999975701160727
33.52899932861328,0.0,0.0,-0.38999998569488525,0.23999999463558197,0.0,0.0,1.0,0.0,-0.49789974093437195,1725891874.248489,0.069332321413501,0.5885689151287403,-0.0010031323779449257
33.62710189819336,0.0,0.0,-0.4300000071525574,0.20999999344348907,-0.001090830541215837,0.0,1.0,0.0,-0.49789974093437195,1725891874.258514,0.06932845425174587,0.5885630806226667,-0.0009211177096673966
33.62710189819336,0.0,0.0,-0.4300000071525574,0.20999999344348907,-0.001090830541215837,0.0,1.0,0.0,-0.49789974093437195,1725891874.2691405,0.06933600467132808,0.5885569421553671,-0.0009130893182881513
33.62710189819336,0.0,0.0,-0.4300000071525574,0.20999999344348907,-0.001090830541215837,0.0,1.0,0.0,-0.49789974093437195,1725891874.2786026,0.06933380555654432,0.588561825563441,-0.0009297111222980171
33.62710189819336,0.0,0.0,-0.4300000071525574,0.20999999344348907,-0.001090830541215837,0.0,1.0,0.0,-0.49789974093437195,1725891874.2879672,0.06933366665413618,0.5885653558667011,-0.0009243975936797311
33.62710189819336,0.0,0.0,-0.4300000071525574,0.20999999344348907,-0.001090830541215837,0.0,1.0,0.0,-0.49789974093437195,1725891874.298399,0.06933577564300539,0.5885644035447644,-0.001076022382108519
33.62710189819336,0.0,0.0,-0.4300000071525574,0.20999999344348907,-0.001090830541215837,0.0,1.0,0.0,-0.49789974093437195,1725891874.3085394,0.06933824484543576,0.5885658940250937,-0.0009721142885831828
33.62710189819336,0.0,0.0,-0.4300000071525574,0.20999999344348907,-0.001090830541215837,0.0,1.0,0.0,-0.49789974093437195,1725891874.3184383,0.06933760961545866,0.5885729911688531,-0.0008170332359000898
33.62710189819336,0.0,0.0,-0.4300000071525574,0.20999999344348907,-0.001090830541215837,0.0,1.0,0.0,-0.49789974093437195,1725891874.3283913,0.06932902318080947,0.58857087338779,-0.0009636215362574539
33.72796630859375,0.0,0.0,-0.4300000071525574,0.2199999988079071,0.0032724919728934765,0.0,1.0,0.0,-0.49789974093437195,1725891874.3383589,0.06933653669986471,0.5885568314944961,-0.0010126650578622105
33.72796630859375,0.0,0.0,-0.4300000071525574,0.2199999988079071,0.0032724919728934765,0.0,1.0,0.0,-0.49789974093437195,1725891874.348486,0.06933474012101296,0.5885636677810899,-0.0009436019778940526
33.72796630859375,0.0,0.0,-0.4300000071525574,0.2199999988079071,0.0032724919728934765,0.0,1.0,0.0,-0.49789974093437195,1725891874.3585186,0.06933416768961807,0.5885641139298561,-0.0010450053858781338
33.72796630859375,0.0,0.0,-0.4300000071525574,0.2199999988079071,0.0032724919728934765,0.0,1.0,0.0,-0.49789974093437195,1725891874.3684046,0.06933116912104474,0.5885634212427718,-0.0009482614610599217
33.72796630859375,0.0,0.0,-0.4300000071525574,0.2199999988079071,0.0032724919728934765,0.0,1.0,0.0,-0.49789974093437195,1725891874.3784966,0.0693261561661734,0.5885727533272388,-0.0009419956193541509
33.72796630859375,0.0,0.0,-0.4300000071525574,0.2199999988079071,0.0032724919728934765,0.0,1.0,0.0,-0.49789974093437195,1725891874.3883865,0.06932606919318018,0.5885767217851439,-0.000791389457667686
33.72796630859375,0.0,0.0,-0.4300000071525574,0.2199999988079071,0.0032724919728934765,0.0,1.0,0.0,-0.49789974093437195,1725891874.3983443,0.06934358881389185,0.5885720947087231,-0.0009502199135788306
33.72796630859375,0.0,0.0,-0.4300000071525574,0.2199999988079071,0.0032724919728934765,0.0,1.0,0.0,-0.49789974093437195,1725891874.408573,0.06933763695715592,0.58857098463221,-0.0010589036072041116
33.72796630859375,0.0,0.0,-0.4300000071525574,0.2199999988079071,0.0032724919728934765,0.0,1.0,0.0,-0.49789974093437195,1725891874.4182649,0.06933668563317456,0.5885704366043116,-0.000959448001894878
33.72796630859375,0.0,0.0,-0.4300000071525574,0.2199999988079071,0.0032724919728934765,0.0,1.0,0.0,-0.49789974093437195,1725891874.4283185,0.06933402150584,0.5885705821901415,-0.0010463306611153502
33.829105377197266,0.0,0.0,-0.4300000071525574,0.20999999344348907,0.001090830541215837,0.0,1.0,0.0,-0.49789974093437195,1725891874.4384432,0.0693396429618549,0.5885687611931907,-0.00093846077595456
33.829105377197266,0.0,0.0,-0.4300000071525574,0.20999999344348907,0.001090830541215837,0.0,1.0,0.0,-0.49789974093437195,1725891874.4483383,0.06933569461930368,0.5885742471251266,-0.0009652727715067014
33.829105377197266,0.0,0.0,-0.4300000071525574,0.20999999344348907,0.001090830541215837,0.0,1.0,0.0,-0.49789974093437195,1725891874.4584093,0.06933790781212297,0.5885629995279051,-0.0008882981343484678
33.829105377197266,0.0,0.0,-0.4300000071525574,0.20999999344348907,0.001090830541215837,0.0,1.0,0.0,-0.49789974093437195,1725891874.4685862,0.06933391450703282,0.5885666721448276,-0.0008828378735259308
33.829105377197266,0.0,0.0,-0.4300000071525574,0.20999999344348907,0.001090830541215837,0.0,1.0,0.0,-0.49789974093437195,1725891874.4784355,0.06933182933380258,0.5885663025602315,-0.0009647900266914884
33.829105377197266,0.0,0.0,-0.4300000071525574,0.20999999344348907,0.001090830541215837,0.0,1.0,0.0,-0.49789974093437195,1725891874.4885893,0.0693332150663133,0.5885700439387078,-0.0009732424661780279
33.829105377197266,0.0,0.0,-0.4300000071525574,0.20999999344348907,0.001090830541215837,0.0,1.0,0.0,-0.49789974093437195,1725891874.498455,0.06933819990088759,0.5885681299671233,-0.0009091625902909425
33.829105377197266,0.0,0.0,-0.4300000071525574,0.20999999344348907,0.001090830541215837,0.0,1.0,0.0,-0.49789974093437195,1725891874.5084574,0.06933125876984234,0.5885714222778117,-0.0009403237802611601
33.829105377197266,0.0,0.0,-0.4300000071525574,0.20999999344348907,0.001090830541215837,0.0,1.0,0.0,-0.49789974093437195,1725891874.5184872,0.06933536982031792,0.5885725370971154,-0.0010555203292188647
33.829105377197266,0.0,0.0,-0.4300000071525574,0.20999999344348907,0.001090830541215837,0.0,1.0,0.0,-0.49789974093437195,1725891874.5279794,0.06933984941878711,0.5885664026682843,-0.000995290489665099
33.930686950683594,0.0,0.0,-0.3799999952316284,0.20000000298023224,0.001090830541215837,0.0,1.0,0.0,-0.49789974093437195,1725891874.5382645,0.06933792535923704,0.588568472130326,-0.0009772379957654425
33.930686950683594,0.0,0.0,-0.3799999952316284,0.20000000298023224,0.001090830541215837,0.0,1.0,0.0,-0.49789974093437195,1725891874.5479171,0.06932916529476375,0.5885757556894254,-0.0010240497763016935
33.930686950683594,0.0,0.0,-0.3799999952316284,0.20000000298023224,0.001090830541215837,0.0,1.0,0.0,-0.49789974093437195,1725891874.5583315,0.06932972688897836,0.5885672054038976,-0.000991027213908778
33.930686950683594,0.0,0.0,-0.3799999952316284,0.20000000298023224,0.001090830541215837,0.0,1.0,0.0,-0.49789974093437195,1725891874.5683267,0.06933452839887885,0.5885746689068126,-0.0009208470990244766
33.930686950683594,0.0,0.0,-0.3799999952316284,0.20000000298023224,0.001090830541215837,0.0,1.0,0.0,-0.49789974093437195,1725891874.5784323,0.0693276214312566,0.5885751624517963,-0.0009150674629584669
33.930686950683594,0.0,0.0,-0.3799999952316284,0.20000000298023224,0.001090830541215837,0.0,1.0,0.0,-0.49789974093437195,1725891874.588273,0.06934037736954701,0.5885732037771125,-0.0010838591588338239
33.930686950683594,0.0,0.0,-0.3799999952316284,0.20000000298023224,0.001090830541215837,0.0,1.0,0.0,-0.49789974093437195,1725891874.5984697,0.06933039985123385,0.5885720563551585,-0.000973237468214981
33.930686950683594,0.0,0.0,-0.3799999952316284,0.20000000298023224,0.001090830541215837,0.0,1.0,0.0,-0.49789974093437195,1725891874.6085513,0.06932749038840964,0.588571882296175,-0.0009644335760953991
33.930686950683594,0.0,0.0,-0.3799999952316284,0.20000000298023224,0.001090830541215837,0.0,1.0,0.0,-0.49789974093437195,1725891874.618234,0.06933750080297882,0.5885718128634639,-0.0009291623178274669
33.930686950683594,0.0,0.0,-0.3799999952316284,0.20000000298023224,0.001090830541215837,0.0,1.0,0.0,-0.49789974093437195,1725891874.628416,0.06933613861520237,0.5885681373133768,-0.001061709308625249
34.028953552246094,0.0,0.0,-0.44999998807907104,0.2199999988079071,0.002181661082431674,0.0,1.0,0.0,-0.49789974093437195,1725891874.6383932,0.06933561211954596,0.588563856481741,-0.0009662565988332897
34.028953552246094,0.0,0.0,-0.44999998807907104,0.2199999988079071,0.002181661082431674,0.0,1.0,0.0,-0.49789974093437195,1725891874.648414,0.06933265818654905,0.5885679302942102,-0.0009547785954096906
34.028953552246094,0.0,0.0,-0.44999998807907104,0.2199999988079071,0.002181661082431674,0.0,1.0,0.0,-0.49789974093437195,1725891874.658356,0.06933278159638413,0.5885640580174996,-0.001016091269207617
34.028953552246094,0.0,0.0,-0.44999998807907104,0.2199999988079071,0.002181661082431674,0.0,1.0,0.0,-0.49789974093437195,1725891874.6683552,0.06933449113277183,0.5885637287122437,-0.0009643414649209427
34.028953552246094,0.0,0.0,-0.44999998807907104,0.2199999988079071,0.002181661082431674,0.0,1.0,0.0,-0.49789974093437195,1725891874.6783612,0.06932721322404524,0.5885713820107269,-0.0010478545851882238
34.028953552246094,0.0,0.0,-0.44999998807907104,0.2199999988079071,0.002181661082431674,0.0,1.0,0.0,-0.49789974093437195,1725891874.6884484,0.0693324997647029,0.5885774194136687,-0.0009677197202373719
34.028953552246094,0.0,0.0,-0.44999998807907104,0.2199999988079071,0.002181661082431674,0.0,1.0,0.0,-0.49789974093437195,1725891874.698377,0.06932803794871593,0.5885690991990185,-0.0009561498389379086
34.028953552246094,0.0,0.0,-0.44999998807907104,0.2199999988079071,0.002181661082431674,0.0,1.0,0.0,-0.49789974093437195,1725891874.708623,0.06932938493578016,0.58856674031642,-0.0010198298793731725
34.028953552246094,0.0,0.0,-0.44999998807907104,0.2199999988079071,0.002181661082431674,0.0,1.0,0.0,-0.49789974093437195,1725891874.7184982,0.06933689758874706,0.5885589929278114,-0.0010839247654702742
34.028953552246094,0.0,0.0,-0.44999998807907104,0.2199999988079071,0.002181661082431674,0.0,1.0,0.0,-0.49789974093437195,1725891874.7286344,0.06932518246063807,0.5885727985597248,-0.0009720326637125351
34.12887191772461,0.0,0.0,-0.4399999976158142,0.1899999976158142,0.0,0.0,1.0,0.0,-0.49789974093437195,1725891874.7383318,0.06932551639093788,0.588563600095977,-0.0009388456944168648
34.12887191772461,0.0,0.0,-0.4399999976158142,0.1899999976158142,0.0,0.0,1.0,0.0,-0.49789974093437195,1725891874.7485833,0.06933295034307373,0.5885590481842099,-0.0009086169007155367
34.12887191772461,0.0,0.0,-0.4399999976158142,0.1899999976158142,0.0,0.0,1.0,0.0,-0.49789974093437195,1725891874.758575,0.06932838755194494,0.5885703378351107,-0.0009442759183757094
34.12887191772461,0.0,0.0,-0.4399999976158142,0.1899999976158142,0.0,0.0,1.0,0.0,-0.49789974093437195,1725891874.7679284,0.06932560714889358,0.5885657507251346,-0.0010502774847467263
34.12887191772461,0.0,0.0,-0.4399999976158142,0.1899999976158142,0.0,0.0,1.0,0.0,-0.49789974093437195,1725891874.778293,0.06933342204890075,0.5885623757109999,-0.0008533827509456608
34.12887191772461,0.0,0.0,-0.4399999976158142,0.1899999976158142,0.0,0.0,1.0,0.0,-0.49789974093437195,1725891874.7885017,0.0693396105875147,0.5885695676136905,-0.0010809572096464222
34.12887191772461,0.0,0.0,-0.4399999976158142,0.1899999976158142,0.0,0.0,1.0,0.0,-0.49789974093437195,1725891874.7979255,0.06932792797862146,0.5885682477360202,-0.0009482185391715627
34.12887191772461,0.0,0.0,-0.4399999976158142,0.1899999976158142,0.0,0.0,1.0,0.0,-0.49789974093437195,1725891874.8081083,0.06933284152999389,0.5885714895990489,-0.0010130226894734127
34.12887191772461,0.0,0.0,-0.4399999976158142,0.1899999976158142,0.0,0.0,1.0,0.0,-0.49789974093437195,1725891874.8180687,0.06932774182492434,0.588562974979908,-0.0009416093201485091
34.12887191772461,0.0,0.0,-0.4399999976158142,0.1899999976158142,0.0,0.0,1.0,0.0,-0.49789974093437195,1725891874.8280246,0.0693381420081471,0.5885706082693127,-0.0010608430585966402
34.22890090942383,0.0,0.0,-0.4099999964237213,0.20999999344348907,-0.0032724919728934765,0.0,1.0,0.20000162720680237,-0.49789974093437195,1725891874.8386328,0.06933171815447003,0.5885652715439665,-0.0010709345145528586
34.22890090942383,0.0,0.0,-0.4099999964237213,0.20999999344348907,-0.0032724919728934765,0.0,1.0,0.20000162720680237,-0.49789974093437195,1725891874.8478394,0.06933638285515678,0.5885655272987131,-0.0010038468188781225
34.22890090942383,0.0,0.0,-0.4099999964237213,0.20999999344348907,-0.0032724919728934765,0.0,1.0,0.20000162720680237,-0.49789974093437195,1725891874.8578496,0.06933028893366515,0.5885677429084966,-0.0009062570086788166
34.22890090942383,0.0,0.0,-0.4099999964237213,0.20999999344348907,-0.0032724919728934765,0.0,1.0,0.20000162720680237,-0.49789974093437195,1725891874.867918,0.06934022193699614,0.5885690397284645,-0.0008949814923346068
34.22890090942383,0.0,0.0,-0.4099999964237213,0.20999999344348907,-0.0032724919728934765,0.0,1.0,0.20000162720680237,-0.49789974093437195,1725891874.8779376,0.06934647870811808,0.588569902658283,-0.0009902548742672995
34.22890090942383,0.0,0.0,-0.4099999964237213,0.20999999344348907,-0.0032724919728934765,0.0,1.0,0.20000162720680237,-0.49789974093437195,1725891874.8879337,0.06937813668889482,0.5885672425729788,-0.001079358388771668
34.22890090942383,0.0,0.0,-0.4099999964237213,0.20999999344348907,-0.0032724919728934765,0.0,1.0,0.20000162720680237,-0.49789974093437195,1725891874.8978996,0.06942597152095292,0.5885591024129291,-0.0013000088017570378
34.22890090942383,0.0,0.0,-0.4099999964237213,0.20999999344348907,-0.0032724919728934765,0.0,1.0,0.20000162720680237,-0.49789974093437195,1725891874.9081151,0.0694362816724097,0.588549748613199,-0.0012574816475112134
34.22890090942383,0.0,0.0,-0.4099999964237213,0.20999999344348907,-0.0032724919728934765,0.0,1.0,0.20000162720680237,-0.49789974093437195,1725891874.9180067,0.06946737135171432,0.5885434289606027,-0.0012048085440186107
34.22890090942383,0.0,0.0,-0.4099999964237213,0.20999999344348907,-0.0032724919728934765,0.0,1.0,0.20000162720680237,-0.49789974093437195,1725891874.927977,0.06947637756734984,0.5885337371235395,-0.0013020246747439711
34.32880401611328,0.0,0.0,-0.5799999833106995,0.10999999940395355,-0.001090830541215837,0.0,1.0,0.2007056027650833,-0.49789974093437195,1725891874.937869,0.06949102983991425,0.5885499305302611,-0.0014176291098532787
34.32880401611328,0.0,0.0,-0.5799999833106995,0.10999999940395355,-0.001090830541215837,0.0,1.0,0.2007056027650833,-0.49789974093437195,1725891874.9478962,0.06951707202643337,0.5885509548355412,-0.0013054713902585495
34.32880401611328,0.0,0.0,-0.5799999833106995,0.10999999940395355,-0.001090830541215837,0.0,1.0,0.2007056027650833,-0.49789974093437195,1725891874.9579885,0.06951778620372473,0.5885611256229903,-0.0011861491389208566
34.32880401611328,0.0,0.0,-0.5799999833106995,0.10999999940395355,-0.001090830541215837,0.0,1.0,0.2007056027650833,-0.49789974093437195,1725891874.9684372,0.0695255548822338,0.5885600441923682,-0.0012871203925334561
34.32880401611328,0.0,0.0,-0.5799999833106995,0.10999999940395355,-0.001090830541215837,0.0,1.0,0.2007056027650833,-0.49789974093437195,1725891874.9784646,0.06952255430184918,0.5885352500534978,-0.0013728998929619005
34.32880401611328,0.0,0.0,-0.5799999833106995,0.10999999940395355,-0.001090830541215837,0.0,1.0,0.2007056027650833,-0.49789974093437195,1725891874.9884853,0.06951530618150255,0.5885404186884174,-0.0013842939670828819
34.32880401611328,0.0,0.0,-0.5799999833106995,0.10999999940395355,-0.001090830541215837,0.0,1.0,0.2007056027650833,-0.49789974093437195,1725891874.998396,0.06952702246116367,0.588539586388151,-0.0014089752986946118
34.32880401611328,0.0,0.0,-0.5799999833106995,0.10999999940395355,-0.001090830541215837,0.0,1.0,0.2007056027650833,-0.49789974093437195,1725891875.0087354,0.06952899530524945,0.5885510024421869,-0.0013284737844663714
34.32880401611328,0.0,0.0,-0.5799999833106995,0.10999999940395355,-0.001090830541215837,0.0,1.0,0.2007056027650833,-0.49789974093437195,1725891875.0186265,0.06952922777227065,0.5885447805498469,-0.0013319304887115368
34.32880401611328,0.0,0.0,-0.5799999833106995,0.10999999940395355,-0.001090830541215837,0.0,1.0,0.2007056027650833,-0.49789974093437195,1725891875.0283792,0.06953612414485684,0.5885506522354202,-0.001321918065588702
34.430145263671875,0.0,0.0,-0.3199999928474426,0.25999999046325684,0.0,0.041270799934864044,1.0,0.20141512155532837,-0.49789974093437195,1725891875.0382938,0.0695415568982293,0.5885495641237296,-0.0013846163723586105
34.430145263671875,0.0,0.0,-0.3199999928474426,0.25999999046325684,0.0,0.041270799934864044,1.0,0.20141512155532837,-0.49789974093437195,1725891875.048264,0.06952645975646934,0.5885367268295275,-0.0014585262521045732
34.430145263671875,0.0,0.0,-0.3199999928474426,0.25999999046325684,0.0,0.041270799934864044,1.0,0.20141512155532837,-0.49789974093437195,1725891875.0585437,0.06953582334392994,0.5885346301807114,-0.0013830697713912237
34.430145263671875,0.0,0.0,-0.3199999928474426,0.25999999046325684,0.0,0.041270799934864044,1.0,0.20141512155532837,-0.49789974093437195,1725891875.0690162,0.0695301857383483,0.5885390784390776,-0.0012879409493689751
34.430145263671875,0.0,0.0,-0.3199999928474426,0.25999999046325684,0.0,0.041270799934864044,1.0,0.20141512155532837,-0.49789974093437195,1725891875.0784245,0.06953613961569549,0.5885454882737278,-0.0014442321969110195
34.430145263671875,0.0,0.0,-0.3199999928474426,0.25999999046325684,0.0,0.041270799934864044,1.0,0.20141512155532837,-0.49789974093437195,1725891875.0884514,0.06953962642138599,0.5885446250892951,-0.0014065237239368781
34.430145263671875,0.0,0.0,-0.3199999928474426,0.25999999046325684,0.0,0.041270799934864044,1.0,0.20141512155532837,-0.49789974093437195,1725891875.0984457,0.0695358521461025,0.5885354056294475,-0.0012956816633648174
34.430145263671875,0.0,0.0,-0.3199999928474426,0.25999999046325684,0.0,0.041270799934864044,1.0,0.20141512155532837,-0.49789974093437195,1725891875.1086454,0.0695275397129609,0.5885373274745876,-0.0013841344359291385
34.430145263671875,0.0,0.0,-0.3199999928474426,0.25999999046325684,0.0,0.041270799934864044,1.0,0.20141512155532837,-0.49789974093437195,1725891875.1183753,0.069537565377616,0.588535844697809,-0.0013790468949094004
34.430145263671875,0.0,0.0,-0.3199999928474426,0.25999999046325684,0.0,0.041270799934864044,1.0,0.20141512155532837,-0.49789974093437195,1725891875.12876,0.06953046137559225,0.5885399704856045,-0.001389301349318898
34.529396057128906,0.0,0.0,-0.49000000953674316,0.15000000596046448,-0.001090830541215837,0.0,1.0,0.20212124288082123,-0.49789974093437195,1725891875.1381843,0.06953618545041335,0.5885355782262012,-0.001336200394074801
34.529396057128906,0.0,0.0,-0.49000000953674316,0.15000000596046448,-0.001090830541215837,0.0,1.0,0.20212124288082123,-0.49789974093437195,1725891875.1481764,0.06953612773628963,0.5885434622056124,-0.0012397451378407362
34.529396057128906,0.0,0.0,-0.49000000953674316,0.15000000596046448,-0.001090830541215837,0.0,1.0,0.20212124288082123,-0.49789974093437195,1725891875.1581612,0.06953902098811506,0.5885451534717254,-0.001297619977564959
34.529396057128906,0.0,0.0,-0.49000000953674316,0.15000000596046448,-0.001090830541215837,0.0,1.0,0.20212124288082123,-0.49789974093437195,1725891875.1681752,0.0695593461469137,0.5885456063665575,-0.0014544049485129605
34.529396057128906,0.0,0.0,-0.49000000953674316,0.15000000596046448,-0.001090830541215837,0.0,1.0,0.20212124288082123,-0.49789974093437195,1725891875.178552,0.06955731604185335,0.5885435390675784,-0.0014420817228683414
34.529396057128906,0.0,0.0,-0.49000000953674316,0.15000000596046448,-0.001090830541215837,0.0,1.0,0.20212124288082123,-0.49789974093437195,1725891875.188389,0.06957332354317597,0.5885311510415785,-0.0014277598406054182
34.529396057128906,0.0,0.0,-0.49000000953674316,0.15000000596046448,-0.001090830541215837,0.0,1.0,0.20212124288082123,-0.49789974093437195,1725891875.1979043,0.06958540271837615,0.5885358260412317,-0.0014777330053786708
