elapsed time sensors,current,voltage,acc x (IMU),acc y (IMU),W (IMU),vel encoder,safety_value,throttle,steering,vicon time,vicon x,vicon y,vicon yaw
0.0,0.0,0.0,0.0,0.0,0.0,0.0,0.0,0.0,0.0,1726474325.5465806,-3.1151988544812874,-1.9661003279321196,0.45849073716639205
0.0,0.0,0.0,0.0,0.0,0.0,0.0,0.0,0.0,0.0,1726474325.5565457,-3.1151833599738374,-1.9660930769611422,0.45834203723356715
0.0,0.0,0.0,0.0,0.0,0.0,0.0,0.0,0.0,0.0,1726474325.5665357,-3.1151904738193457,-1.9660926753579688,0.45856572538381185
0.0,0.0,0.0,0.0,0.0,0.0,0.0,0.0,0.0,0.0,1726474325.576501,-3.115192377722911,-1.9660894332332515,0.45823912905364456
77.62194061279297,0.0,0.0,-0.30000001192092896,0.2199999988079071,0.0,0.0,0.0,-0.0,-0.0,1726474325.5872698,-3.1151867541704097,-1.966102333562275,0.4584599407904197
77.62194061279297,0.0,0.0,-0.30000001192092896,0.2199999988079071,0.0,0.0,0.0,-0.0,-0.0,1726474325.5971844,-3.1151813425786976,-1.966105476994094,0.4581698856546651
77.62194061279297,0.0,0.0,-0.30000001192092896,0.2199999988079071,0.0,0.0,0.0,-0.0,-0.0,1726474325.6072974,-3.11518728781073,-1.9660902667922162,0.45845113432615947
77.62194061279297,0.0,0.0,-0.30000001192092896,0.2199999988079071,0.0,0.0,0.0,-0.0,-0.0,1726474325.6169982,-3.1151914838351775,-1.9661074188325636,0.458473382815805
77.62194061279297,0.0,0.0,-0.30000001192092896,0.2199999988079071,0.0,0.0,0.0,-0.0,-0.0,1726474325.6274576,-3.115187673240638,-1.966085000233025,0.45821740926261695
77.62194061279297,0.0,0.0,-0.30000001192092896,0.2199999988079071,0.0,0.0,0.0,-0.0,-0.0,1726474325.6370971,-3.11518322562102,-1.9661010859481851,0.4584871075606999
77.62194061279297,0.0,0.0,-0.30000001192092896,0.2199999988079071,0.0,0.0,0.0,-0.0,-0.0,1726474325.6472325,-3.1151947282128294,-1.9660962594341271,0.4586531337073318
77.62194061279297,0.0,0.0,-0.30000001192092896,0.2199999988079071,0.0,0.0,0.0,-0.0,-0.0,1726474325.656912,-3.115198455434907,-1.9661175244954943,0.4580601038245293
77.62194061279297,0.0,0.0,-0.30000001192092896,0.2199999988079071,0.0,0.0,0.0,-0.0,-0.0,1726474325.667187,-3.1151889994457056,-1.9661067307639621,0.4585165928429896
77.62194061279297,0.0,0.0,-0.30000001192092896,0.2199999988079071,0.0,0.0,0.0,-0.0,-0.0,1726474325.6770947,-3.1151861852165674,-1.9661177687265616,0.45838966928251257
77.62194061279297,0.0,0.0,-0.30000001192092896,0.2199999988079071,0.0,0.0,0.0,-0.0,-0.0,1726474325.6872282,-3.115196271554716,-1.9661096206357895,0.4583995539740373
77.72235107421875,0.0,0.0,-0.3100000023841858,0.2199999988079071,-0.001090830541215837,0.0,0.0,-0.0,-0.0,1726474325.6969454,-3.1151878444918024,-1.9660744878594902,0.4582658007345314
77.72235107421875,0.0,0.0,-0.3100000023841858,0.2199999988079071,-0.001090830541215837,0.0,0.0,-0.0,-0.0,1726474325.7067907,-3.115179439696854,-1.9661202910712536,0.4584241498535143
77.72235107421875,0.0,0.0,-0.3100000023841858,0.2199999988079071,-0.001090830541215837,0.0,0.0,-0.0,-0.0,1726474325.7169714,-3.1152202892477363,-1.9661092825743232,0.45848217811914616
77.72235107421875,0.0,0.0,-0.3100000023841858,0.2199999988079071,-0.001090830541215837,0.0,0.0,-0.0,-0.0,1726474325.7272425,-3.115177409473124,-1.9661113042190677,0.4582826294553407
77.72235107421875,0.0,0.0,-0.3100000023841858,0.2199999988079071,-0.001090830541215837,0.0,0.0,-0.0,-0.0,1726474325.7374322,-3.1151931593798117,-1.966113038048462,0.4583127036428801
77.72235107421875,0.0,0.0,-0.3100000023841858,0.2199999988079071,-0.001090830541215837,0.0,0.0,-0.0,-0.0,1726474325.747142,-3.115181869169263,-1.9660953954019935,0.4584978154857127
77.72235107421875,0.0,0.0,-0.3100000023841858,0.2199999988079071,-0.001090830541215837,0.0,0.0,-0.0,-0.0,1726474325.757391,-3.115196971837136,-1.9661018051292654,0.4582954678462188
77.72235107421875,0.0,0.0,-0.3100000023841858,0.2199999988079071,-0.001090830541215837,0.0,0.0,-0.0,-0.0,1726474325.7673054,-3.115179111904376,-1.9661132157786494,0.45800755949025745
77.72235107421875,0.0,0.0,-0.3100000023841858,0.2199999988079071,-0.001090830541215837,0.0,0.0,-0.0,-0.0,1726474325.7771034,-3.115191329525576,-1.9660889102858825,0.4581999966376712
77.72235107421875,0.0,0.0,-0.3100000023841858,0.2199999988079071,-0.001090830541215837,0.0,0.0,-0.0,-0.0,1726474325.786878,-3.115185167870224,-1.9660978285202133,0.45821598802637853
77.82196807861328,0.0,0.0,-0.30000001192092896,0.2199999988079071,-0.001090830541215837,0.0,0.0,-0.0,-0.0,1726474325.796825,-3.1151954309483885,-1.966131916538751,0.4585918512485749
77.82196807861328,0.0,0.0,-0.30000001192092896,0.2199999988079071,-0.001090830541215837,0.0,0.0,-0.0,-0.0,1726474325.80722,-3.115180025797422,-1.9661115004145797,0.45853373601937436
77.82196807861328,0.0,0.0,-0.30000001192092896,0.2199999988079071,-0.001090830541215837,0.0,0.0,-0.0,-0.0,1726474325.8170826,-3.1151889625868483,-1.9660905045865182,0.4583433340547107
77.82196807861328,0.0,0.0,-0.30000001192092896,0.2199999988079071,-0.001090830541215837,0.0,0.0,-0.0,-0.0,1726474325.82706,-3.11518213421847,-1.966110867373442,0.45858985741116887
77.82196807861328,0.0,0.0,-0.30000001192092896,0.2199999988079071,-0.001090830541215837,0.0,0.0,-0.0,-0.0,1726474325.8370028,-3.115214645736491,-1.9661023747377042,0.4583020477348788
77.82196807861328,0.0,0.0,-0.30000001192092896,0.2199999988079071,-0.001090830541215837,0.0,0.0,-0.0,-0.0,1726474325.847252,-3.11519446136781,-1.9661326165117707,0.45835468819086556
77.82196807861328,0.0,0.0,-0.30000001192092896,0.2199999988079071,-0.001090830541215837,0.0,0.0,-0.0,-0.0,1726474325.8573976,-3.1152050639962114,-1.9660896169720001,0.4582253973697058
77.82196807861328,0.0,0.0,-0.30000001192092896,0.2199999988079071,-0.001090830541215837,0.0,0.0,-0.0,-0.0,1726474325.867191,-3.1151970614507754,-1.9660931514612234,0.458185186697511
77.82196807861328,0.0,0.0,-0.30000001192092896,0.2199999988079071,-0.001090830541215837,0.0,0.0,-0.0,-0.0,1726474325.877426,-3.115195858494991,-1.9661125677300952,0.458348717507456
77.82196807861328,0.0,0.0,-0.30000001192092896,0.2199999988079071,-0.001090830541215837,0.0,0.0,-0.0,-0.0,1726474325.8871007,-3.1151986855291063,-1.9661016684937491,0.4586347971874619
77.92415618896484,0.0,0.0,-0.4099999964237213,0.1599999964237213,0.002181661082431674,0.0,0.0,-0.0,-0.0,1726474325.8970068,-3.1151926574228193,-1.9660932464813425,0.4585069353243555
77.92415618896484,0.0,0.0,-0.4099999964237213,0.1599999964237213,0.002181661082431674,0.0,0.0,-0.0,-0.0,1726474325.907089,-3.115188629440843,-1.9660835717548528,0.4584821503366092
77.92415618896484,0.0,0.0,-0.4099999964237213,0.1599999964237213,0.002181661082431674,0.0,0.0,-0.0,-0.0,1726474325.9168208,-3.115181984015365,-1.966132165894823,0.4583121608770364
77.92415618896484,0.0,0.0,-0.4099999964237213,0.1599999964237213,0.002181661082431674,0.0,0.0,-0.0,-0.0,1726474325.927109,-3.1151894375004385,-1.9661015010822311,0.45828894568186135
77.92415618896484,0.0,0.0,-0.4099999964237213,0.1599999964237213,0.002181661082431674,0.0,0.0,-0.0,-0.0,1726474325.9369996,-3.1151893215624678,-1.9660981652153608,0.45823965215149626
77.92415618896484,0.0,0.0,-0.4099999964237213,0.1599999964237213,0.002181661082431674,0.0,0.0,-0.0,-0.0,1726474325.9464376,-3.115202008808811,-1.9661215417006712,0.45817858578530923
77.92415618896484,0.0,0.0,-0.4099999964237213,0.1599999964237213,0.002181661082431674,0.0,0.0,-0.0,-0.0,1726474325.9560935,-3.115184191883843,-1.966093278631404,0.45826789565466103
77.92415618896484,0.0,0.0,-0.4099999964237213,0.1599999964237213,0.002181661082431674,0.0,0.0,-0.0,-0.0,1726474325.9663887,-3.115213130388835,-1.966093036773666,0.45830840626289354
77.92415618896484,0.0,0.0,-0.4099999964237213,0.1599999964237213,0.002181661082431674,0.0,0.0,-0.0,-0.0,1726474325.9765933,-3.1151830703542824,-1.9660926133486423,0.4584599147289564
78.0213623046875,0.0,0.0,-0.2800000011920929,0.23999999463558197,0.0,0.0,0.0,-0.0,-0.0,1726474325.987123,-3.1151936573350105,-1.9661075667668626,0.4584502620168127
78.0213623046875,0.0,0.0,-0.2800000011920929,0.23999999463558197,0.0,0.0,0.0,-0.0,-0.0,1726474325.9971526,-3.115198736270835,-1.9660978415931145,0.4583434921834312
78.0213623046875,0.0,0.0,-0.2800000011920929,0.23999999463558197,0.0,0.0,0.0,-0.0,-0.0,1726474326.0071352,-3.115184805372821,-1.9661211862040104,0.45840370523650364
78.0213623046875,0.0,0.0,-0.2800000011920929,0.23999999463558197,0.0,0.0,0.0,-0.0,-0.0,1726474326.0172887,-3.115199834424765,-1.9661186592858624,0.4585450343204145
78.0213623046875,0.0,0.0,-0.2800000011920929,0.23999999463558197,0.0,0.0,0.0,-0.0,-0.0,1726474326.0272837,-3.115201614165196,-1.9660802798518255,0.458423400574804
78.0213623046875,0.0,0.0,-0.2800000011920929,0.23999999463558197,0.0,0.0,0.0,-0.0,-0.0,1726474326.0372415,-3.1152010333989235,-1.966083286506695,0.4584750641122998
78.0213623046875,0.0,0.0,-0.2800000011920929,0.23999999463558197,0.0,0.0,0.0,-0.0,-0.0,1726474326.0471444,-3.1151992312283525,-1.9661053036809069,0.4582647343300568
78.0213623046875,0.0,0.0,-0.2800000011920929,0.23999999463558197,0.0,0.0,0.0,-0.0,-0.0,1726474326.0575666,-3.115203575081545,-1.9661012838437597,0.45833222266841256
78.0213623046875,0.0,0.0,-0.2800000011920929,0.23999999463558197,0.0,0.0,0.0,-0.0,-0.0,1726474326.0672581,-3.1151964563224666,-1.966104331558592,0.4580576706096606
78.0213623046875,0.0,0.0,-0.2800000011920929,0.23999999463558197,0.0,0.0,0.0,-0.0,-0.0,1726474326.0761454,-3.115194885550213,-1.9661094971515325,0.4584240929024123
78.11786651611328,0.0,0.0,-0.30000001192092896,0.1899999976158142,0.0032724919728934765,0.0,0.0,-0.0,-0.0,1726474326.0862584,-3.1151925288540716,-1.9661043876641973,0.45809779542801105
78.11786651611328,0.0,0.0,-0.30000001192092896,0.1899999976158142,0.0032724919728934765,0.0,0.0,-0.0,-0.0,1726474326.096382,-3.1151986938850973,-1.966111705576867,0.4586178843843692
78.11786651611328,0.0,0.0,-0.30000001192092896,0.1899999976158142,0.0032724919728934765,0.0,0.0,-0.0,-0.0,1726474326.1063037,-3.1152092833094733,-1.9661116148888835,0.4580746281140731
78.11786651611328,0.0,0.0,-0.30000001192092896,0.1899999976158142,0.0032724919728934765,0.0,0.0,-0.0,-0.0,1726474326.1166966,-3.115206119305047,-1.9660870220592133,0.4586721782703114
78.11786651611328,0.0,0.0,-0.30000001192092896,0.1899999976158142,0.0032724919728934765,0.0,0.0,-0.0,-0.0,1726474326.1268337,-3.1151978195166303,-1.9660897832086437,0.4582102550223182
78.11786651611328,0.0,0.0,-0.30000001192092896,0.1899999976158142,0.0032724919728934765,0.0,0.0,-0.0,-0.0,1726474326.136703,-3.115202250338373,-1.9660785451765348,0.45831805777384166
78.11786651611328,0.0,0.0,-0.30000001192092896,0.1899999976158142,0.0032724919728934765,0.0,0.0,-0.0,-0.0,1726474326.1467805,-3.1151955839077696,-1.9660973133032038,0.45823994616552
78.11786651611328,0.0,0.0,-0.30000001192092896,0.1899999976158142,0.0032724919728934765,0.0,0.0,-0.0,-0.0,1726474326.1566286,-3.115210153455617,-1.9661036219910795,0.45853840804823
78.11786651611328,0.0,0.0,-0.30000001192092896,0.1899999976158142,0.0032724919728934765,0.0,0.0,-0.0,-0.0,1726474326.1670012,-3.1151926985418896,-1.966105038125172,0.458236261075405
78.11786651611328,0.0,0.0,-0.30000001192092896,0.1899999976158142,0.0032724919728934765,0.0,0.0,-0.0,-0.0,1726474326.1766589,-3.1152095505998876,-1.9661207163993142,0.4585276197903465
78.2198257446289,0.0,0.0,-0.28999999165534973,0.23000000417232513,0.0,0.0,0.0,-0.0,-0.0,1726474326.1867244,-3.1151752221782854,-1.9661053636601113,0.4582638925125942
78.2198257446289,0.0,0.0,-0.28999999165534973,0.23000000417232513,0.0,0.0,0.0,-0.0,-0.0,1726474326.1966958,-3.1152113354364857,-1.9660869926391047,0.4584473667735813
78.2198257446289,0.0,0.0,-0.28999999165534973,0.23000000417232513,0.0,0.0,0.0,-0.0,-0.0,1726474326.206392,-3.115199611774538,-1.9661313037460493,0.4582859182840091
78.2198257446289,0.0,0.0,-0.28999999165534973,0.23000000417232513,0.0,0.0,0.0,-0.0,-0.0,1726474326.2168052,-3.1152084744994872,-1.9660903685289,0.4584173830229557
78.2198257446289,0.0,0.0,-0.28999999165534973,0.23000000417232513,0.0,0.0,0.0,-0.0,-0.0,1726474326.2268703,-3.1152004757871152,-1.9661161689677003,0.45842467014960653
78.2198257446289,0.0,0.0,-0.28999999165534973,0.23000000417232513,0.0,0.0,0.0,-0.0,-0.0,1726474326.2367086,-3.115190346652984,-1.9660878659808505,0.4584510123016323
78.2198257446289,0.0,0.0,-0.28999999165534973,0.23000000417232513,0.0,0.0,0.0,-0.0,-0.0,1726474326.2467163,-3.1151845655407144,-1.9661050720971998,0.458185541555781
78.2198257446289,0.0,0.0,-0.28999999165534973,0.23000000417232513,0.0,0.0,0.0,-0.0,-0.0,1726474326.25673,-3.115202031069378,-1.9661246712934455,0.4583659229038054
78.2198257446289,0.0,0.0,-0.28999999165534973,0.23000000417232513,0.0,0.0,0.0,-0.0,-0.0,1726474326.2665699,-3.1151914263415854,-1.9661080674367615,0.4583733307725403
78.2198257446289,0.0,0.0,-0.28999999165534973,0.23000000417232513,0.0,0.0,0.0,-0.0,-0.0,1726474326.2771244,-3.1151778820672966,-1.9661024218071659,0.45812663052248853
78.31869506835938,0.0,0.0,-0.3199999928474426,0.20999999344348907,0.0,0.0,0.0,-0.0,-0.0,1726474326.287227,-3.1151701437266817,-1.9660908593831734,0.45810972381865234
78.31869506835938,0.0,0.0,-0.3199999928474426,0.20999999344348907,0.0,0.0,0.0,-0.0,-0.0,1726474326.2969928,-3.115195454307371,-1.966098734381146,0.4580388464900088
78.31869506835938,0.0,0.0,-0.3199999928474426,0.20999999344348907,0.0,0.0,0.0,-0.0,-0.0,1726474326.3069482,-3.1151924266867432,-1.9660963836963907,0.4582449340735565
78.31869506835938,0.0,0.0,-0.3199999928474426,0.20999999344348907,0.0,0.0,0.0,-0.0,-0.0,1726474326.317052,-3.115172262362206,-1.9661056724400408,0.4581552876785186
78.31869506835938,0.0,0.0,-0.3199999928474426,0.20999999344348907,0.0,0.0,0.0,-0.0,-0.0,1726474326.327034,-3.115194357711348,-1.9661183482646056,0.45863190854134406
78.31869506835938,0.0,0.0,-0.3199999928474426,0.20999999344348907,0.0,0.0,0.0,-0.0,-0.0,1726474326.3371212,-3.1151765820305966,-1.9661145722774074,0.4583646401779931
78.31869506835938,0.0,0.0,-0.3199999928474426,0.20999999344348907,0.0,0.0,0.0,-0.0,-0.0,1726474326.3466105,-3.1152051752311984,-1.9661001836930645,0.45846371440393746
78.31869506835938,0.0,0.0,-0.3199999928474426,0.20999999344348907,0.0,0.0,0.0,-0.0,-0.0,1726474326.3572903,-3.1151878022209822,-1.9661219824697305,0.4580790889043808
78.31869506835938,0.0,0.0,-0.3199999928474426,0.20999999344348907,0.0,0.0,0.0,-0.0,-0.0,1726474326.367158,-3.11519616558337,-1.9661036175973132,0.4585163988878628
78.31869506835938,0.0,0.0,-0.3199999928474426,0.20999999344348907,0.0,0.0,0.0,-0.0,-0.0,1726474326.3772655,-3.115196175404187,-1.966115680223881,0.45853565970123106
78.418212890625,0.0,0.0,-0.28999999165534973,0.2199999988079071,0.0,0.0,0.0,-0.0,-0.0,1726474326.3882432,-3.1151774788419275,-1.9660953157090542,0.45831670398277896
78.418212890625,0.0,0.0,-0.28999999165534973,0.2199999988079071,0.0,0.0,0.0,-0.0,-0.0,1726474326.3972547,-3.1152019970237474,-1.9661161082405723,0.4582759038466843
78.418212890625,0.0,0.0,-0.28999999165534973,0.2199999988079071,0.0,0.0,0.0,-0.0,-0.0,1726474326.4071522,-3.115174533103454,-1.9660820188004988,0.4586033934802783
78.418212890625,0.0,0.0,-0.28999999165534973,0.2199999988079071,0.0,0.0,0.0,-0.0,-0.0,1726474326.4167206,-3.1152071356243236,-1.9661084764959702,0.4582437492737061
78.418212890625,0.0,0.0,-0.28999999165534973,0.2199999988079071,0.0,0.0,0.0,-0.0,-0.0,1726474326.426818,-3.115197434358541,-1.966112735235043,0.45836491058421175
78.418212890625,0.0,0.0,-0.28999999165534973,0.2199999988079071,0.0,0.0,0.0,-0.0,-0.0,1726474326.4368975,-3.1151886312769386,-1.9661168992297764,0.45850659092370183
78.418212890625,0.0,0.0,-0.28999999165534973,0.2199999988079071,0.0,0.0,0.0,-0.0,-0.0,1726474326.4471235,-3.1151747308872437,-1.966109485652568,0.4586871307320006
78.418212890625,0.0,0.0,-0.28999999165534973,0.2199999988079071,0.0,0.0,0.0,-0.0,-0.0,1726474326.4567091,-3.115187213495252,-1.9661141620753684,0.4584711745821667
78.418212890625,0.0,0.0,-0.28999999165534973,0.2199999988079071,0.0,0.0,0.0,-0.0,-0.0,1726474326.4668415,-3.1151936387669927,-1.9661047967668013,0.4583138848681987
78.418212890625,0.0,0.0,-0.28999999165534973,0.2199999988079071,0.0,0.0,0.0,-0.0,-0.0,1726474326.4767342,-3.1151970137725913,-1.9661111837513916,0.45855418081839555
78.418212890625,0.0,0.0,-0.28999999165534973,0.2199999988079071,0.0,0.0,0.0,-0.0,-0.0,1726474326.4876094,-3.1151859382906437,-1.966079552730635,0.45828872336171994
78.52301025390625,0.0,0.0,-0.38999998569488525,0.20999999344348907,0.0,0.0,0.0,-0.0,-0.0,1726474326.4975195,-3.115162953737667,-1.9661039293359004,0.4584828233534185
78.52301025390625,0.0,0.0,-0.38999998569488525,0.20999999344348907,0.0,0.0,0.0,-0.0,-0.0,1726474326.5069556,-3.115197136616205,-1.966117924114313,0.45827641954029896
78.52301025390625,0.0,0.0,-0.38999998569488525,0.20999999344348907,0.0,0.0,0.0,-0.0,-0.0,1726474326.516772,-3.1152033624538937,-1.9661220086798725,0.45836733362342624
78.52301025390625,0.0,0.0,-0.38999998569488525,0.20999999344348907,0.0,0.0,0.0,-0.0,-0.0,1726474326.5270417,-3.115193938387689,-1.9661086316944845,0.4581341174232555
78.52301025390625,0.0,0.0,-0.38999998569488525,0.20999999344348907,0.0,0.0,0.0,-0.0,-0.0,1726474326.5373049,-3.115168450805616,-1.9660857461133658,0.4583711973122562
78.52301025390625,0.0,0.0,-0.38999998569488525,0.20999999344348907,0.0,0.0,0.0,-0.0,-0.0,1726474326.5469391,-3.115178961836845,-1.9661244246455543,0.45870344541503855
78.52301025390625,0.0,0.0,-0.38999998569488525,0.20999999344348907,0.0,0.0,0.0,-0.0,-0.0,1726474326.5567458,-3.1151907460254393,-1.9660784255193144,0.45856156797926445
78.52301025390625,0.0,0.0,-0.38999998569488525,0.20999999344348907,0.0,0.0,0.0,-0.0,-0.0,1726474326.5668612,-3.115191347305369,-1.9661088789014887,0.4585553795303983
78.52301025390625,0.0,0.0,-0.38999998569488525,0.20999999344348907,0.0,0.0,0.0,-0.0,-0.0,1726474326.5770972,-3.1152153914639875,-1.9661270766828305,0.45878892746000816
78.62064361572266,0.0,0.0,-0.2800000011920929,0.2199999988079071,-0.002181661082431674,0.0,0.0,-0.0,-0.0,1726474326.5871408,-3.1151910301746235,-1.9661112294707905,0.4584682105565673
78.62064361572266,0.0,0.0,-0.2800000011920929,0.2199999988079071,-0.002181661082431674,0.0,0.0,-0.0,-0.0,1726474326.5967813,-3.115197106382598,-1.9661139093203417,0.45863928026337814
78.62064361572266,0.0,0.0,-0.2800000011920929,0.2199999988079071,-0.002181661082431674,0.0,0.0,-0.0,-0.0,1726474326.6071937,-3.1151946005778277,-1.9661052708334346,0.4582383452399822
78.62064361572266,0.0,0.0,-0.2800000011920929,0.2199999988079071,-0.002181661082431674,0.0,0.0,-0.0,-0.0,1726474326.6169903,-3.1151923375203965,-1.966091078607907,0.458683912120171
78.62064361572266,0.0,0.0,-0.2800000011920929,0.2199999988079071,-0.002181661082431674,0.0,0.0,-0.0,-0.0,1726474326.6273377,-3.115189469996799,-1.9661104047495412,0.45840498147534586
78.62064361572266,0.0,0.0,-0.2800000011920929,0.2199999988079071,-0.002181661082431674,0.0,0.0,-0.0,-0.0,1726474326.636873,-3.115211691552464,-1.9660930183328962,0.45806702553036055
78.62064361572266,0.0,0.0,-0.2800000011920929,0.2199999988079071,-0.002181661082431674,0.0,0.0,-0.0,-0.0,1726474326.6470282,-3.1152005565646115,-1.9661274036929333,0.45874688634220906
78.62064361572266,0.0,0.0,-0.2800000011920929,0.2199999988079071,-0.002181661082431674,0.0,0.0,-0.0,-0.0,1726474326.656909,-3.115205303603085,-1.9661204799248224,0.4586161883653014
78.62064361572266,0.0,0.0,-0.2800000011920929,0.2199999988079071,-0.002181661082431674,0.0,0.0,-0.0,-0.0,1726474326.6668782,-3.115193053473268,-1.9661072028571627,0.45830681366862475
78.62064361572266,0.0,0.0,-0.2800000011920929,0.2199999988079071,-0.002181661082431674,0.0,0.0,-0.0,-0.0,1726474326.6772783,-3.1152067491792104,-1.966096159749544,0.45808758580524117
78.72064971923828,0.0,0.0,-0.3199999928474426,0.20000000298023224,0.0,0.0,0.0,-0.0,-0.0,1726474326.6871643,-3.1151830330252177,-1.966088309198773,0.45866077712947045
78.72064971923828,0.0,0.0,-0.3199999928474426,0.20000000298023224,0.0,0.0,0.0,-0.0,-0.0,1726474326.6968517,-3.1152031792345984,-1.966106061404158,0.45840986312924503
78.72064971923828,0.0,0.0,-0.3199999928474426,0.20000000298023224,0.0,0.0,0.0,-0.0,-0.0,1726474326.7068055,-3.1151949519272693,-1.9661091022444428,0.4580612199407495
78.72064971923828,0.0,0.0,-0.3199999928474426,0.20000000298023224,0.0,0.0,0.0,-0.0,-0.0,1726474326.717446,-3.115188149801055,-1.9661113303188866,0.458307008637727
78.72064971923828,0.0,0.0,-0.3199999928474426,0.20000000298023224,0.0,0.0,0.0,-0.0,-0.0,1726474326.7271495,-3.1151873012296463,-1.966114323520729,0.4581712603439791
78.72064971923828,0.0,0.0,-0.3199999928474426,0.20000000298023224,0.0,0.0,0.0,-0.0,-0.0,1726474326.7369132,-3.115193448401654,-1.9661111995622214,0.4586885401359954
78.72064971923828,0.0,0.0,-0.3199999928474426,0.20000000298023224,0.0,0.0,0.0,-0.0,-0.0,1726474326.7470536,-3.1151728394843143,-1.966090800874202,0.4584527918985591
78.72064971923828,0.0,0.0,-0.3199999928474426,0.20000000298023224,0.0,0.0,0.0,-0.0,-0.0,1726474326.756852,-3.115188999048631,-1.966084299030231,0.45848339119609066
78.72064971923828,0.0,0.0,-0.3199999928474426,0.20000000298023224,0.0,0.0,0.0,-0.0,-0.0,1726474326.7672114,-3.115184838304195,-1.9661000243015325,0.4585081114484799
78.72064971923828,0.0,0.0,-0.3199999928474426,0.20000000298023224,0.0,0.0,0.0,-0.0,-0.0,1726474326.7770813,-3.1152188598802315,-1.9661080233600399,0.45822677049809174
78.81965637207031,0.0,0.0,-0.3799999952316284,0.17000000178813934,-0.001090830541215837,0.0,0.0,-0.0,-0.0,1726474326.7868788,-3.1151763356722206,-1.9660981229250682,0.4580876257027534
78.81965637207031,0.0,0.0,-0.3799999952316284,0.17000000178813934,-0.001090830541215837,0.0,0.0,-0.0,-0.0,1726474326.797214,-3.1151829610031436,-1.9660971732749741,0.45880439017351676
78.81965637207031,0.0,0.0,-0.3799999952316284,0.17000000178813934,-0.001090830541215837,0.0,0.0,-0.0,-0.0,1726474326.8071105,-3.1152094032380546,-1.9661204294856929,0.45836345623551067
78.81965637207031,0.0,0.0,-0.3799999952316284,0.17000000178813934,-0.001090830541215837,0.0,0.0,-0.0,-0.0,1726474326.8170493,-3.1151766745779814,-1.9661149130418947,0.45842666390927794
78.81965637207031,0.0,0.0,-0.3799999952316284,0.17000000178813934,-0.001090830541215837,0.0,0.0,-0.0,-0.0,1726474326.8271058,-3.1151979962980474,-1.966117943562176,0.4584111104188008
78.81965637207031,0.0,0.0,-0.3799999952316284,0.17000000178813934,-0.001090830541215837,0.0,0.0,-0.0,-0.0,1726474326.8369071,-3.1152204537825114,-1.9661231320186636,0.4585029507829284
78.81965637207031,0.0,0.0,-0.3799999952316284,0.17000000178813934,-0.001090830541215837,0.0,0.0,-0.0,-0.0,1726474326.847078,-3.115198240151396,-1.966099950542086,0.4582483355283548
78.81965637207031,0.0,0.0,-0.3799999952316284,0.17000000178813934,-0.001090830541215837,0.0,0.0,-0.0,-0.0,1726474326.8571632,-3.1152001300005483,-1.9660968715488458,0.4582369279329409
78.81965637207031,0.0,0.0,-0.3799999952316284,0.17000000178813934,-0.001090830541215837,0.0,0.0,-0.0,-0.0,1726474326.8673387,-3.1151887892135854,-1.9661010850454326,0.45824947509433916
78.81965637207031,0.0,0.0,-0.3799999952316284,0.17000000178813934,-0.001090830541215837,0.0,0.0,-0.0,-0.0,1726474326.8771386,-3.115228016602877,-1.9660898335113122,0.45814156453873073
78.91947937011719,0.0,0.0,-0.30000001192092896,0.23000000417232513,0.001090830541215837,0.0,0.0,-0.0,-0.0,1726474326.8872488,-3.1152168367006983,-1.9661174172695397,0.45811959782902645
78.91947937011719,0.0,0.0,-0.30000001192092896,0.23000000417232513,0.001090830541215837,0.0,0.0,-0.0,-0.0,1726474326.8970344,-3.1151835994445003,-1.96611178650997,0.4584367556203202
78.91947937011719,0.0,0.0,-0.30000001192092896,0.23000000417232513,0.001090830541215837,0.0,0.0,-0.0,-0.0,1726474326.9068737,-3.1151816909799868,-1.9661035793628476,0.45838446938369176
78.91947937011719,0.0,0.0,-0.30000001192092896,0.23000000417232513,0.001090830541215837,0.0,0.0,-0.0,-0.0,1726474326.9174466,-3.115176952789233,-1.9661084677963199,0.4582877858057479
78.91947937011719,0.0,0.0,-0.30000001192092896,0.23000000417232513,0.001090830541215837,0.0,0.0,-0.0,-0.0,1726474326.927299,-3.115186119970979,-1.9661144012282468,0.4585737610615021
78.91947937011719,0.0,0.0,-0.30000001192092896,0.23000000417232513,0.001090830541215837,0.0,0.0,-0.0,-0.0,1726474326.9370835,-3.1151953799631142,-1.9661003485022592,0.45836898346551463
78.91947937011719,0.0,0.0,-0.30000001192092896,0.23000000417232513,0.001090830541215837,0.0,0.0,-0.0,-0.0,1726474326.9470608,-3.1152052397301535,-1.9661328565534748,0.45842063104794056
78.91947937011719,0.0,0.0,-0.30000001192092896,0.23000000417232513,0.001090830541215837,0.0,0.0,-0.0,-0.0,1726474326.957158,-3.1152022288093804,-1.9661004192914062,0.4583574761407801
78.91947937011719,0.0,0.0,-0.30000001192092896,0.23000000417232513,0.001090830541215837,0.0,0.0,-0.0,-0.0,1726474326.9670162,-3.115212723176106,-1.9660921278867376,0.45850310381041054
78.91947937011719,0.0,0.0,-0.30000001192092896,0.23000000417232513,0.001090830541215837,0.0,0.0,-0.0,-0.0,1726474326.9772236,-3.1151977821166104,-1.9661238937355938,0.4582806607479747
78.91947937011719,0.0,0.0,-0.30000001192092896,0.23000000417232513,0.001090830541215837,0.0,0.0,-0.0,-0.0,1726474326.986982,-3.1151768365379273,-1.966090670891755,0.45839504487032345
79.02171325683594,0.0,0.0,-0.3799999952316284,0.18000000715255737,-0.001090830541215837,0.0,0.0,-0.0,-0.0,1726474326.9969938,-3.1152071254758678,-1.966116399606908,0.4581905897522266
79.02171325683594,0.0,0.0,-0.3799999952316284,0.18000000715255737,-0.001090830541215837,0.0,0.0,-0.0,-0.0,1726474327.006525,-3.1151851391172576,-1.9660809956494516,0.45846691084354096
79.02171325683594,0.0,0.0,-0.3799999952316284,0.18000000715255737,-0.001090830541215837,0.0,0.0,-0.0,-0.0,1726474327.0166526,-3.1151894365103643,-1.9660805590849824,0.45852717068905263
79.02171325683594,0.0,0.0,-0.3799999952316284,0.18000000715255737,-0.001090830541215837,0.0,0.0,-0.0,-0.0,1726474327.0268195,-3.115197072952575,-1.9660948322785867,0.45837934263855723
79.02171325683594,0.0,0.0,-0.3799999952316284,0.18000000715255737,-0.001090830541215837,0.0,0.0,-0.0,-0.0,1726474327.036404,-3.1151909475996824,-1.9660828495566967,0.4581728548534337
79.02171325683594,0.0,0.0,-0.3799999952316284,0.18000000715255737,-0.001090830541215837,0.0,0.0,-0.0,-0.0,1726474327.0464401,-3.1151881961817143,-1.9661250972106392,0.4584597682333813
79.02171325683594,0.0,0.0,-0.3799999952316284,0.18000000715255737,-0.001090830541215837,0.0,0.0,-0.0,-0.0,1726474327.056659,-3.1151952798791385,-1.9660962227197998,0.45822147271985886
79.02171325683594,0.0,0.0,-0.3799999952316284,0.18000000715255737,-0.001090830541215837,0.0,0.0,-0.0,-0.0,1726474327.0666416,-3.1151784477978395,-1.9661027457587485,0.45853857504072626
79.02171325683594,0.0,0.0,-0.3799999952316284,0.18000000715255737,-0.001090830541215837,0.0,0.0,-0.0,-0.0,1726474327.0766828,-3.115192594753854,-1.9661107328510792,0.45837100908771494
79.11781311035156,0.0,0.0,-0.27000001072883606,0.2199999988079071,0.001090830541215837,0.0,0.0,-0.0,-0.0,1726474327.0866911,-3.115178753295179,-1.9661124530128236,0.4584008337528039
79.11781311035156,0.0,0.0,-0.27000001072883606,0.2199999988079071,0.001090830541215837,0.0,0.0,-0.0,-0.0,1726474327.0966697,-3.1151858421691063,-1.9660832592618098,0.4584308177559342
79.11781311035156,0.0,0.0,-0.27000001072883606,0.2199999988079071,0.001090830541215837,0.0,0.0,-0.0,-0.0,1726474327.106616,-3.1151807238189755,-1.9660881012840459,0.4582592179652441
79.11781311035156,0.0,0.0,-0.27000001072883606,0.2199999988079071,0.001090830541215837,0.0,0.0,-0.0,-0.0,1726474327.116543,-3.1151787250371807,-1.9661055658030329,0.45835454245957435
79.11781311035156,0.0,0.0,-0.27000001072883606,0.2199999988079071,0.001090830541215837,0.0,0.0,-0.0,-0.0,1726474327.1267045,-3.11517984833559,-1.966105125674236,0.4583340511889107
79.11781311035156,0.0,0.0,-0.27000001072883606,0.2199999988079071,0.001090830541215837,0.0,0.0,-0.0,-0.0,1726474327.1366806,-3.1151967411306063,-1.9661148965198147,0.45831122788695233
79.11781311035156,0.0,0.0,-0.27000001072883606,0.2199999988079071,0.001090830541215837,0.0,0.0,-0.0,-0.0,1726474327.1467419,-3.1152105530661496,-1.9661319600188565,0.458390249539993
79.11781311035156,0.0,0.0,-0.27000001072883606,0.2199999988079071,0.001090830541215837,0.0,0.0,-0.0,-0.0,1726474327.1566424,-3.1151789673562122,-1.9661308655961405,0.458273731518692
79.11781311035156,0.0,0.0,-0.27000001072883606,0.2199999988079071,0.001090830541215837,0.0,0.0,-0.0,-0.0,1726474327.166843,-3.1151775401369233,-1.9661060208112764,0.4583915978437707
79.11781311035156,0.0,0.0,-0.27000001072883606,0.2199999988079071,0.001090830541215837,0.0,0.0,-0.0,-0.0,1726474327.1766515,-3.115186598012133,-1.9660918957374136,0.4583911130217015
79.21952819824219,0.0,0.0,-0.33000001311302185,0.20999999344348907,-0.001090830541215837,0.0,0.0,-0.0,-0.0,1726474327.186702,-3.1151936775004,-1.9660982346392182,0.4583864157069605
79.21952819824219,0.0,0.0,-0.33000001311302185,0.20999999344348907,-0.001090830541215837,0.0,0.0,-0.0,-0.0,1726474327.196701,-3.115183049721222,-1.9661019466921732,0.45826465393464666
79.21952819824219,0.0,0.0,-0.33000001311302185,0.20999999344348907,-0.001090830541215837,0.0,0.0,-0.0,-0.0,1726474327.2067807,-3.115202138099219,-1.9660991902327223,0.4583003299963058
79.21952819824219,0.0,0.0,-0.33000001311302185,0.20999999344348907,-0.001090830541215837,0.0,0.0,-0.0,-0.0,1726474327.2167242,-3.1151900892179536,-1.9660902576999664,0.4585340173202285
79.21952819824219,0.0,0.0,-0.33000001311302185,0.20999999344348907,-0.001090830541215837,0.0,0.0,-0.0,-0.0,1726474327.2272491,-3.1151937514044135,-1.966093459520904,0.4583232762744846
79.21952819824219,0.0,0.0,-0.33000001311302185,0.20999999344348907,-0.001090830541215837,0.0,0.0,-0.0,-0.0,1726474327.236648,-3.1151820823881677,-1.9661042433383653,0.4584115881595173
79.21952819824219,0.0,0.0,-0.33000001311302185,0.20999999344348907,-0.001090830541215837,0.0,0.0,-0.0,-0.0,1726474327.2466972,-3.1151916323180457,-1.966125532619693,0.45832303958082793
79.21952819824219,0.0,0.0,-0.33000001311302185,0.20999999344348907,-0.001090830541215837,0.0,0.0,-0.0,-0.0,1726474327.257443,-3.115186390902205,-1.9661065960730268,0.4585804070765047
79.21952819824219,0.0,0.0,-0.33000001311302185,0.20999999344348907,-0.001090830541215837,0.0,0.0,-0.0,-0.0,1726474327.266923,-3.1151766757638124,-1.966098831860195,0.4583912925808862
79.21952819824219,0.0,0.0,-0.33000001311302185,0.20999999344348907,-0.001090830541215837,0.0,0.0,-0.0,-0.0,1726474327.2770877,-3.1152015755637734,-1.9661013983917632,0.4584009460092639
79.31786346435547,0.0,0.0,-0.38999998569488525,0.1899999976158142,0.001090830541215837,0.0,0.0,-0.0,-0.0,1726474327.2871163,-3.1151777733290045,-1.9661169785544554,0.45854561865855253
79.31786346435547,0.0,0.0,-0.38999998569488525,0.1899999976158142,0.001090830541215837,0.0,0.0,-0.0,-0.0,1726474327.2970388,-3.1152025692228906,-1.9661082102896503,0.4582016563653889
79.31786346435547,0.0,0.0,-0.38999998569488525,0.1899999976158142,0.001090830541215837,0.0,0.0,-0.0,-0.0,1726474327.3072329,-3.1151900679701194,-1.9661086643100483,0.4584096799775684
79.31786346435547,0.0,0.0,-0.38999998569488525,0.1899999976158142,0.001090830541215837,0.0,0.0,-0.0,-0.0,1726474327.3170211,-3.1152046056543052,-1.966098748779369,0.45854018142308484
79.31786346435547,0.0,0.0,-0.38999998569488525,0.1899999976158142,0.001090830541215837,0.0,0.0,-0.0,-0.0,1726474327.327274,-3.1151969829681745,-1.9660767315480336,0.4581725677024033
79.31786346435547,0.0,0.0,-0.38999998569488525,0.1899999976158142,0.001090830541215837,0.0,0.0,-0.0,-0.0,1726474327.3369577,-3.1152046290261453,-1.9661129502656418,0.458214034348083
79.31786346435547,0.0,0.0,-0.38999998569488525,0.1899999976158142,0.001090830541215837,0.0,0.0,-0.0,-0.0,1726474327.3471067,-3.115186497747412,-1.9660800071359388,0.4582781394621917
79.31786346435547,0.0,0.0,-0.38999998569488525,0.1899999976158142,0.001090830541215837,0.0,0.0,-0.0,-0.0,1726474327.3571494,-3.1151955189136133,-1.9660917416671224,0.45858956334922424
79.31786346435547,0.0,0.0,-0.38999998569488525,0.1899999976158142,0.001090830541215837,0.0,0.0,-0.0,-0.0,1726474327.366855,-3.115196174909387,-1.9660882705672946,0.4585262910909724
79.31786346435547,0.0,0.0,-0.38999998569488525,0.1899999976158142,0.001090830541215837,0.0,0.0,-0.0,-0.0,1726474327.3769305,-3.115213811200888,-1.966100617044207,0.4583528952206997
79.41824340820312,0.0,0.0,-0.27000001072883606,0.23000000417232513,-0.001090830541215837,0.0,0.0,-0.0,-0.0,1726474327.386902,-3.1151862344434758,-1.9661033928494434,0.4586612943323352
79.41824340820312,0.0,0.0,-0.27000001072883606,0.23000000417232513,-0.001090830541215837,0.0,0.0,-0.0,-0.0,1726474327.3972046,-3.1151628085686034,-1.9660972623285515,0.4582317723750112
79.41824340820312,0.0,0.0,-0.27000001072883606,0.23000000417232513,-0.001090830541215837,0.0,0.0,-0.0,-0.0,1726474327.407186,-3.1151675364172347,-1.9660980736565319,0.45817386743539146
79.41824340820312,0.0,0.0,-0.27000001072883606,0.23000000417232513,-0.001090830541215837,0.0,0.0,-0.0,-0.0,1726474327.4173734,-3.1151937513981656,-1.9660974010488554,0.4581868891101484
79.41824340820312,0.0,0.0,-0.27000001072883606,0.23000000417232513,-0.001090830541215837,0.0,0.0,-0.0,-0.0,1726474327.4273334,-3.1151921400356404,-1.9660946808315947,0.4584012465356668
79.41824340820312,0.0,0.0,-0.27000001072883606,0.23000000417232513,-0.001090830541215837,0.0,0.0,-0.0,-0.0,1726474327.4369028,-3.1151873928579206,-1.9661134140053589,0.45843479185402053
79.41824340820312,0.0,0.0,-0.27000001072883606,0.23000000417232513,-0.001090830541215837,0.0,0.0,-0.0,-0.0,1726474327.4471536,-3.1151992828002566,-1.966098381205563,0.458188663945716
79.41824340820312,0.0,0.0,-0.27000001072883606,0.23000000417232513,-0.001090830541215837,0.0,0.0,-0.0,-0.0,1726474327.4572682,-3.115196061023114,-1.9661208631306821,0.4582606862899605
79.41824340820312,0.0,0.0,-0.27000001072883606,0.23000000417232513,-0.001090830541215837,0.0,0.0,-0.0,-0.0,1726474327.4670694,-3.1151903853656653,-1.9661018515174873,0.45829343351879614
79.41824340820312,0.0,0.0,-0.27000001072883606,0.23000000417232513,-0.001090830541215837,0.0,0.0,-0.0,-0.0,1726474327.477119,-3.1151681219731384,-1.966085814322307,0.4585277975558859
79.51488494873047,0.0,0.0,-0.3400000035762787,0.1899999976158142,-0.002181661082431674,0.0,0.0,-0.0,-0.0,1726474327.4873152,-3.11518867909126,-1.9660885403009234,0.4584703842604031
79.51488494873047,0.0,0.0,-0.3400000035762787,0.1899999976158142,-0.002181661082431674,0.0,0.0,-0.0,-0.0,1726474327.4970865,-3.115187999557682,-1.966113319764515,0.4581419061365149
79.51488494873047,0.0,0.0,-0.3400000035762787,0.1899999976158142,-0.002181661082431674,0.0,0.0,-0.0,-0.0,1726474327.5071657,-3.1151666831829123,-1.9660958384651341,0.45842191564411244
79.51488494873047,0.0,0.0,-0.3400000035762787,0.1899999976158142,-0.002181661082431674,0.0,0.0,-0.0,-0.0,1726474327.516927,-3.1151987740340967,-1.966110461537014,0.4584741661040745
79.51488494873047,0.0,0.0,-0.3400000035762787,0.1899999976158142,-0.002181661082431674,0.0,0.0,-0.0,-0.0,1726474327.526388,-3.1151997434122523,-1.9661010636440373,0.458173654622111
79.51488494873047,0.0,0.0,-0.3400000035762787,0.1899999976158142,-0.002181661082431674,0.0,0.0,-0.0,-0.0,1726474327.5370731,-3.11517327987082,-1.96610095622729,0.4584058814514349
79.51488494873047,0.0,0.0,-0.3400000035762787,0.1899999976158142,-0.002181661082431674,0.0,0.0,-0.0,-0.0,1726474327.5469546,-3.1152067300752533,-1.9660913315657624,0.4583886475266991
79.51488494873047,0.0,0.0,-0.3400000035762787,0.1899999976158142,-0.002181661082431674,0.0,0.0,-0.0,-0.0,1726474327.55683,-3.1151927816556593,-1.9660907888474217,0.4586659572433509
79.51488494873047,0.0,0.0,-0.3400000035762787,0.1899999976158142,-0.002181661082431674,0.0,0.0,-0.0,-0.0,1726474327.56728,-3.1151820465585205,-1.9660847730395612,0.4585886772087697
79.51488494873047,0.0,0.0,-0.3400000035762787,0.1899999976158142,-0.002181661082431674,0.0,0.0,-0.0,-0.0,1726474327.5773208,-3.1151969090122993,-1.9661172736562762,0.4585560097234602
79.61712646484375,0.0,0.0,-0.28999999165534973,0.23000000417232513,-0.001090830541215837,0.0,0.0,-0.0,-0.0,1726474327.5869517,-3.1151779688877634,-1.9661030392629792,0.45821643339305057
79.61712646484375,0.0,0.0,-0.28999999165534973,0.23000000417232513,-0.001090830541215837,0.0,0.0,-0.0,-0.0,1726474327.5966938,-3.115201574300416,-1.966102402899522,0.458357468903701
79.61712646484375,0.0,0.0,-0.28999999165534973,0.23000000417232513,-0.001090830541215837,0.0,0.0,-0.0,-0.0,1726474327.6070986,-3.1151896175529643,-1.9661242329597721,0.4582383335723271
79.61712646484375,0.0,0.0,-0.28999999165534973,0.23000000417232513,-0.001090830541215837,0.0,0.0,-0.0,-0.0,1726474327.6167762,-3.1151858186192007,-1.966104386803474,0.45837537390854804
79.61712646484375,0.0,0.0,-0.28999999165534973,0.23000000417232513,-0.001090830541215837,0.0,0.0,-0.0,-0.0,1726474327.6276488,-3.1151986186598046,-1.966082571802739,0.45852874528348303
79.61712646484375,0.0,0.0,-0.28999999165534973,0.23000000417232513,-0.001090830541215837,0.0,0.0,-0.0,-0.0,1726474327.6371684,-3.115171763471546,-1.9660734914556781,0.4585798506509748
79.61712646484375,0.0,0.0,-0.28999999165534973,0.23000000417232513,-0.001090830541215837,0.0,0.0,-0.0,-0.0,1726474327.6470487,-3.115172458264144,-1.96610110309763,0.4583675850265803
79.61712646484375,0.0,0.0,-0.28999999165534973,0.23000000417232513,-0.001090830541215837,0.0,0.0,-0.0,-0.0,1726474327.6583388,-3.1151745585083863,-1.966112654843122,0.4584659089134099
79.61712646484375,0.0,0.0,-0.28999999165534973,0.23000000417232513,-0.001090830541215837,0.0,0.0,-0.0,-0.0,1726474327.6669285,-3.1151901794361896,-1.9661057622572082,0.4582147870440037
79.61712646484375,0.0,0.0,-0.28999999165534973,0.23000000417232513,-0.001090830541215837,0.0,0.0,-0.0,-0.0,1726474327.6770048,-3.115181253002273,-1.9661127809117382,0.458233856279319
79.71449279785156,0.0,0.0,-0.3499999940395355,0.17000000178813934,-0.001090830541215837,0.0,0.0,-0.0,-0.0,1726474327.6870959,-3.1151937411927983,-1.966097493127763,0.4581844652529963
79.71449279785156,0.0,0.0,-0.3499999940395355,0.17000000178813934,-0.001090830541215837,0.0,0.0,-0.0,-0.0,1726474327.696982,-3.115196727729146,-1.9661125453150665,0.45816323171149714
79.71449279785156,0.0,0.0,-0.3499999940395355,0.17000000178813934,-0.001090830541215837,0.0,0.0,-0.0,-0.0,1726474327.7067094,-3.115197909030495,-1.9660924051764455,0.45819318296879935
79.71449279785156,0.0,0.0,-0.3499999940395355,0.17000000178813934,-0.001090830541215837,0.0,0.0,-0.0,-0.0,1726474327.7170787,-3.115181697864405,-1.966096733042121,0.45852481370781895
79.71449279785156,0.0,0.0,-0.3499999940395355,0.17000000178813934,-0.001090830541215837,0.0,0.0,-0.0,-0.0,1726474327.7271423,-3.1151915096828193,-1.9660828844439968,0.45821287140599976
79.71449279785156,0.0,0.0,-0.3499999940395355,0.17000000178813934,-0.001090830541215837,0.0,0.0,-0.0,-0.0,1726474327.7371202,-3.11519500365587,-1.9661153371027693,0.4582314797585472
79.71449279785156,0.0,0.0,-0.3499999940395355,0.17000000178813934,-0.001090830541215837,0.0,0.0,-0.0,-0.0,1726474327.7469401,-3.115209438915121,-1.966100936084791,0.458348381192758
79.71449279785156,0.0,0.0,-0.3499999940395355,0.17000000178813934,-0.001090830541215837,0.0,0.0,-0.0,-0.0,1726474327.7570255,-3.11518972350782,-1.9660985791689178,0.45836653844349584
79.71449279785156,0.0,0.0,-0.3499999940395355,0.17000000178813934,-0.001090830541215837,0.0,0.0,-0.0,-0.0,1726474327.7672606,-3.1151802734012812,-1.966077100629469,0.45805000624830067
79.71449279785156,0.0,0.0,-0.3499999940395355,0.17000000178813934,-0.001090830541215837,0.0,0.0,-0.0,-0.0,1726474327.7769237,-3.115179598754953,-1.9661084709917835,0.45851799312283215
79.81647491455078,0.0,0.0,-0.36000001430511475,0.20000000298023224,0.0,0.0,0.0,-0.0,-0.0,1726474327.7869108,-3.115195528726161,-1.9661030812356837,0.4583892386604435
79.81647491455078,0.0,0.0,-0.36000001430511475,0.20000000298023224,0.0,0.0,0.0,-0.0,-0.0,1726474327.7960215,-3.1151787950680783,-1.9660997012338188,0.4583761744021971
79.81647491455078,0.0,0.0,-0.36000001430511475,0.20000000298023224,0.0,0.0,0.0,-0.0,-0.0,1726474327.8067312,-3.1151935137337854,-1.9661115264767404,0.4583410204064646
79.81647491455078,0.0,0.0,-0.36000001430511475,0.20000000298023224,0.0,0.0,0.0,-0.0,-0.0,1726474327.816005,-3.1151855940407085,-1.9660972638252636,0.45852004269849195
79.81647491455078,0.0,0.0,-0.36000001430511475,0.20000000298023224,0.0,0.0,0.0,-0.0,-0.0,1726474327.8269567,-3.1151726998693734,-1.9661053624933693,0.45840756215581274
79.81647491455078,0.0,0.0,-0.36000001430511475,0.20000000298023224,0.0,0.0,0.0,-0.0,-0.0,1726474327.8362253,-3.1151833357420484,-1.9661022493230527,0.45825740594818576
79.81647491455078,0.0,0.0,-0.36000001430511475,0.20000000298023224,0.0,0.0,0.0,-0.0,-0.0,1726474327.846608,-3.115186216776617,-1.9661139650922683,0.45863903194839384
79.81647491455078,0.0,0.0,-0.36000001430511475,0.20000000298023224,0.0,0.0,0.0,-0.0,-0.0,1726474327.8566442,-3.115182188686514,-1.9660858991722783,0.45823103046398206
79.81647491455078,0.0,0.0,-0.36000001430511475,0.20000000298023224,0.0,0.0,0.0,-0.0,-0.0,1726474327.8667889,-3.115178333101487,-1.9660722809205198,0.4585471496318227
79.81647491455078,0.0,0.0,-0.36000001430511475,0.20000000298023224,0.0,0.0,0.0,-0.0,-0.0,1726474327.8764892,-3.1151951423169466,-1.966109098070771,0.4582224232613648
79.91776275634766,0.0,0.0,-0.2800000011920929,0.2199999988079071,-0.002181661082431674,0.0,0.0,-0.0,-0.0,1726474327.8865342,-3.115186961140464,-1.9660868566247087,0.4581896685047938
79.91776275634766,0.0,0.0,-0.2800000011920929,0.2199999988079071,-0.002181661082431674,0.0,0.0,-0.0,-0.0,1726474327.8964894,-3.1152009742230153,-1.966104613106975,0.4586417179886265
79.91776275634766,0.0,0.0,-0.2800000011920929,0.2199999988079071,-0.002181661082431674,0.0,0.0,-0.0,-0.0,1726474327.906576,-3.1152058719114155,-1.9661254937599628,0.45803093069453993
79.91776275634766,0.0,0.0,-0.2800000011920929,0.2199999988079071,-0.002181661082431674,0.0,0.0,-0.0,-0.0,1726474327.9165685,-3.1151877198001294,-1.966109264745909,0.4585786374860597
79.91776275634766,0.0,0.0,-0.2800000011920929,0.2199999988079071,-0.002181661082431674,0.0,0.0,-0.0,-0.0,1726474327.9267156,-3.1151902681744956,-1.9661121053325887,0.45845313034405116
79.91776275634766,0.0,0.0,-0.2800000011920929,0.2199999988079071,-0.002181661082431674,0.0,0.0,-0.0,-0.0,1726474327.9367633,-3.115180669504157,-1.9660903595274912,0.4584611032798754
79.91776275634766,0.0,0.0,-0.2800000011920929,0.2199999988079071,-0.002181661082431674,0.0,0.0,-0.0,-0.0,1726474327.9466677,-3.1151936003673204,-1.9661085316808193,0.45848768170407583
79.91776275634766,0.0,0.0,-0.2800000011920929,0.2199999988079071,-0.002181661082431674,0.0,0.0,-0.0,-0.0,1726474327.9566507,-3.1151685433625333,-1.9660724614045928,0.45833884216325416
79.91776275634766,0.0,0.0,-0.2800000011920929,0.2199999988079071,-0.002181661082431674,0.0,0.0,-0.0,-0.0,1726474327.9668908,-3.1151753436278455,-1.9660890337050836,0.458399283993286
79.91776275634766,0.0,0.0,-0.2800000011920929,0.2199999988079071,-0.002181661082431674,0.0,0.0,-0.0,-0.0,1726474327.9773953,-3.115200072077302,-1.966108969968177,0.4583563661589341
80.01779174804688,0.0,0.0,-0.3700000047683716,0.20000000298023224,0.001090830541215837,0.0,0.0,-0.0,-0.0,1726474327.9870117,-3.1151917331932415,-1.9661009696480283,0.4581031718568114
80.01779174804688,0.0,0.0,-0.3700000047683716,0.20000000298023224,0.001090830541215837,0.0,0.0,-0.0,-0.0,1726474327.996903,-3.115175213097503,-1.9660900154443421,0.4583862185992144
80.01779174804688,0.0,0.0,-0.3700000047683716,0.20000000298023224,0.001090830541215837,0.0,0.0,-0.0,-0.0,1726474328.0071568,-3.115175596842751,-1.9660662258242931,0.4584068943362349
80.01779174804688,0.0,0.0,-0.3700000047683716,0.20000000298023224,0.001090830541215837,0.0,0.0,-0.0,-0.0,1726474328.0170012,-3.115171308232122,-1.9660954448502248,0.45884258723797683
80.01779174804688,0.0,0.0,-0.3700000047683716,0.20000000298023224,0.001090830541215837,0.0,0.0,-0.0,-0.0,1726474328.0276937,-3.1151698702699804,-1.9661035701620908,0.4584367835428872
80.01779174804688,0.0,0.0,-0.3700000047683716,0.20000000298023224,0.001090830541215837,0.0,0.0,-0.0,-0.0,1726474328.0373127,-3.11518605874823,-1.9661092570478689,0.458268655674026
80.01779174804688,0.0,0.0,-0.3700000047683716,0.20000000298023224,0.001090830541215837,0.0,0.0,-0.0,-0.0,1726474328.046555,-3.1152109980989513,-1.96611467776782,0.4582355851970437
80.01779174804688,0.0,0.0,-0.3700000047683716,0.20000000298023224,0.001090830541215837,0.0,0.0,-0.0,-0.0,1726474328.0565195,-3.1151933316163958,-1.9661152167790295,0.45837452063356765
80.01779174804688,0.0,0.0,-0.3700000047683716,0.20000000298023224,0.001090830541215837,0.0,0.0,-0.0,-0.0,1726474328.0659933,-3.115178728706921,-1.9660647098777158,0.4584804717756217
80.01779174804688,0.0,0.0,-0.3700000047683716,0.20000000298023224,0.001090830541215837,0.0,0.0,-0.0,-0.0,1726474328.076461,-3.1152094990646857,-1.9660836532036696,0.4584552975158214
80.11598205566406,0.0,0.0,-0.27000001072883606,0.2199999988079071,0.0,0.0,0.0,-0.0,-0.0,1726474328.0868802,-3.1151878701253235,-1.9661039950290404,0.4584227104739399
80.11598205566406,0.0,0.0,-0.27000001072883606,0.2199999988079071,0.0,0.0,0.0,-0.0,-0.0,1726474328.0965035,-3.1151803975590058,-1.9661138134755138,0.45841740547941606
80.11598205566406,0.0,0.0,-0.27000001072883606,0.2199999988079071,0.0,0.0,0.0,-0.0,-0.0,1726474328.1063738,-3.1151762824657077,-1.9661048992364119,0.4583848383589389
80.11598205566406,0.0,0.0,-0.27000001072883606,0.2199999988079071,0.0,0.0,0.0,-0.0,-0.0,1726474328.1165645,-3.1151857821128166,-1.966110424134605,0.45836583199152636
80.11598205566406,0.0,0.0,-0.27000001072883606,0.2199999988079071,0.0,0.0,0.0,-0.0,-0.0,1726474328.1261387,-3.115186424862377,-1.966114792488539,0.45811827043524145
80.11598205566406,0.0,0.0,-0.27000001072883606,0.2199999988079071,0.0,0.0,0.0,-0.0,-0.0,1726474328.13618,-3.1151859211121025,-1.9660941513784416,0.4583824423997113
80.11598205566406,0.0,0.0,-0.27000001072883606,0.2199999988079071,0.0,0.0,0.0,-0.0,-0.0,1726474328.1460388,-3.1152042394901063,-1.9660908132268855,0.4582400986023197
80.11598205566406,0.0,0.0,-0.27000001072883606,0.2199999988079071,0.0,0.0,0.0,-0.0,-0.0,1726474328.1562033,-3.1151801678923032,-1.9660891900654998,0.45813134983410214
80.11598205566406,0.0,0.0,-0.27000001072883606,0.2199999988079071,0.0,0.0,0.0,-0.0,-0.0,1726474328.1664762,-3.115207389406834,-1.966110318569711,0.45855601383218964
80.11598205566406,0.0,0.0,-0.27000001072883606,0.2199999988079071,0.0,0.0,0.0,-0.0,-0.0,1726474328.1761389,-3.1151905704577065,-1.966110121539565,0.45850789891642296
80.2157211303711,0.0,0.0,-0.3799999952316284,0.1599999964237213,-0.002181661082431674,0.0,0.0,-0.0,-0.0,1726474328.1861289,-3.1151652895217166,-1.9660838417238786,0.4583542563742436
80.2157211303711,0.0,0.0,-0.3799999952316284,0.1599999964237213,-0.002181661082431674,0.0,0.0,-0.0,-0.0,1726474328.1961827,-3.115190621521818,-1.9661054876615152,0.45845151772506065
80.2157211303711,0.0,0.0,-0.3799999952316284,0.1599999964237213,-0.002181661082431674,0.0,0.0,-0.0,-0.0,1726474328.2061696,-3.1151884637815472,-1.9661144009415648,0.45854565211317005
80.2157211303711,0.0,0.0,-0.3799999952316284,0.1599999964237213,-0.002181661082431674,0.0,0.0,-0.0,-0.0,1726474328.216265,-3.1151946117420763,-1.9660812776852161,0.4583266201819194
80.2157211303711,0.0,0.0,-0.3799999952316284,0.1599999964237213,-0.002181661082431674,0.0,0.0,-0.0,-0.0,1726474328.2272172,-3.1151870806317206,-1.9660972488764485,0.4584548991496515
80.2157211303711,0.0,0.0,-0.3799999952316284,0.1599999964237213,-0.002181661082431674,0.0,0.0,-0.0,-0.0,1726474328.2365966,-3.1151785795936715,-1.9660946087688151,0.45856081999338794
80.2157211303711,0.0,0.0,-0.3799999952316284,0.1599999964237213,-0.002181661082431674,0.0,0.0,-0.0,-0.0,1726474328.24658,-3.115181701607804,-1.9660854343548562,0.45850057835631464
80.2157211303711,0.0,0.0,-0.3799999952316284,0.1599999964237213,-0.002181661082431674,0.0,0.0,-0.0,-0.0,1726474328.2567725,-3.1151751592185826,-1.9660981780221538,0.4584084107077076
80.2157211303711,0.0,0.0,-0.3799999952316284,0.1599999964237213,-0.002181661082431674,0.0,0.0,-0.0,-0.0,1726474328.2666616,-3.1151780141580607,-1.9660877508796153,0.4583085799404341
80.2157211303711,0.0,0.0,-0.3799999952316284,0.1599999964237213,-0.002181661082431674,0.0,0.0,-0.0,-0.0,1726474328.2766514,-3.115179963935546,-1.9660964100147515,0.45832112557672056
80.316650390625,0.0,0.0,-0.36000001430511475,0.20000000298023224,-0.001090830541215837,0.0,0.0,-0.0,0.216522216796875,1726474328.2870295,-3.115162100273046,-1.9661012586181303,0.4587902047085672
80.316650390625,0.0,0.0,-0.36000001430511475,0.20000000298023224,-0.001090830541215837,0.0,0.0,-0.0,0.216522216796875,1726474328.2966356,-3.115155090250476,-1.9660920051344943,0.4585481551874527
80.316650390625,0.0,0.0,-0.36000001430511475,0.20000000298023224,-0.001090830541215837,0.0,0.0,-0.0,0.216522216796875,1726474328.3067198,-3.115182029742421,-1.966112229158512,0.45835742755765413
80.316650390625,0.0,0.0,-0.36000001430511475,0.20000000298023224,-0.001090830541215837,0.0,0.0,-0.0,0.216522216796875,1726474328.3169014,-3.1151825915817914,-1.9660827238901795,0.45843177334021956
80.316650390625,0.0,0.0,-0.36000001430511475,0.20000000298023224,-0.001090830541215837,0.0,0.0,-0.0,0.216522216796875,1726474328.3266551,-3.115177368977869,-1.9661013701645622,0.45832231289546294
80.316650390625,0.0,0.0,-0.36000001430511475,0.20000000298023224,-0.001090830541215837,0.0,0.0,-0.0,0.216522216796875,1726474328.33675,-3.115186500779371,-1.966076375002545,0.4580527571084033
80.316650390625,0.0,0.0,-0.36000001430511475,0.20000000298023224,-0.001090830541215837,0.0,0.0,-0.0,0.216522216796875,1726474328.3465476,-3.1151881024649253,-1.96610027020512,0.4583281011326161
80.316650390625,0.0,0.0,-0.36000001430511475,0.20000000298023224,-0.001090830541215837,0.0,0.0,-0.0,0.216522216796875,1726474328.3569427,-3.1151862763020652,-1.9660972924827385,0.4585276132313489
80.316650390625,0.0,0.0,-0.36000001430511475,0.20000000298023224,-0.001090830541215837,0.0,0.0,-0.0,0.216522216796875,1726474328.366873,-3.115191831340456,-1.9661202588799969,0.45849165699267813
80.316650390625,0.0,0.0,-0.36000001430511475,0.20000000298023224,-0.001090830541215837,0.0,0.0,-0.0,0.216522216796875,1726474328.3767684,-3.115193701993566,-1.9660987120841105,0.4580399106771913
80.4163589477539,0.0,0.0,-0.25999999046325684,0.23999999463558197,-0.001090830541215837,0.0,0.0,-0.0,0.5465222001075745,1726474328.3865898,-3.1151820507524763,-1.9660760917724043,0.4584459707740284
80.4163589477539,0.0,0.0,-0.25999999046325684,0.23999999463558197,-0.001090830541215837,0.0,0.0,-0.0,0.5465222001075745,1726474328.3965125,-3.115201833821514,-1.9660878423123656,0.45844466039138826
80.4163589477539,0.0,0.0,-0.25999999046325684,0.23999999463558197,-0.001090830541215837,0.0,0.0,-0.0,0.5465222001075745,1726474328.4064176,-3.1151890398242887,-1.9661069047698982,0.45844490302903856
80.4163589477539,0.0,0.0,-0.25999999046325684,0.23999999463558197,-0.001090830541215837,0.0,0.0,-0.0,0.5465222001075745,1726474328.4165595,-3.1152091630469134,-1.9660900660737466,0.4585376423820175
80.4163589477539,0.0,0.0,-0.25999999046325684,0.23999999463558197,-0.001090830541215837,0.0,0.0,-0.0,0.5465222001075745,1726474328.426529,-3.1152055361962567,-1.9661049814688871,0.45814851857559735
80.4163589477539,0.0,0.0,-0.25999999046325684,0.23999999463558197,-0.001090830541215837,0.0,0.0,-0.0,0.5465222001075745,1726474328.4364686,-3.1151736526337728,-1.966085701311159,0.45802018964279645
80.4163589477539,0.0,0.0,-0.25999999046325684,0.23999999463558197,-0.001090830541215837,0.0,0.0,-0.0,0.5465222001075745,1726474328.4465873,-3.1151872087014327,-1.9661215168073836,0.45839463995236607
80.4163589477539,0.0,0.0,-0.25999999046325684,0.23999999463558197,-0.001090830541215837,0.0,0.0,-0.0,0.5465222001075745,1726474328.4564924,-3.115208178507299,-1.966099180363581,0.45863761958526567
80.4163589477539,0.0,0.0,-0.25999999046325684,0.23999999463558197,-0.001090830541215837,0.0,0.0,-0.0,0.5465222001075745,1726474328.4664829,-3.1151780672382645,-1.9661018361769311,0.45841334221135965
80.4163589477539,0.0,0.0,-0.25999999046325684,0.23999999463558197,-0.001090830541215837,0.0,0.0,-0.0,0.5465222001075745,1726474328.4765205,-3.115190329879614,-1.96611273061784,0.45800365836790935
80.51744079589844,0.0,0.0,-0.33000001311302185,0.20999999344348907,0.0,0.0,0.0,-0.0,0.8765222430229187,1726474328.4864576,-3.1152003882116905,-1.9661061549890726,0.4583905996698206
80.51744079589844,0.0,0.0,-0.33000001311302185,0.20999999344348907,0.0,0.0,0.0,-0.0,0.8765222430229187,1726474328.496542,-3.115183549809114,-1.9660855281630565,0.4584726638807308
80.51744079589844,0.0,0.0,-0.33000001311302185,0.20999999344348907,0.0,0.0,0.0,-0.0,0.8765222430229187,1726474328.5065627,-3.115191010457451,-1.9660994818631274,0.45832023819670953
80.51744079589844,0.0,0.0,-0.33000001311302185,0.20999999344348907,0.0,0.0,0.0,-0.0,0.8765222430229187,1726474328.5165284,-3.1151770812750295,-1.9661062395188613,0.45848796592826063
80.51744079589844,0.0,0.0,-0.33000001311302185,0.20999999344348907,0.0,0.0,0.0,-0.0,0.8765222430229187,1726474328.526523,-3.1151886294852225,-1.9661139096576166,0.4582422031921981
80.51744079589844,0.0,0.0,-0.33000001311302185,0.20999999344348907,0.0,0.0,0.0,-0.0,0.8765222430229187,1726474328.536737,-3.1151665947082385,-1.9660984640935695,0.4581449163787786
80.51744079589844,0.0,0.0,-0.33000001311302185,0.20999999344348907,0.0,0.0,0.0,-0.0,0.8765222430229187,1726474328.5465443,-3.1152102849438417,-1.9660981232517525,0.45844277207901196
80.51744079589844,0.0,0.0,-0.33000001311302185,0.20999999344348907,0.0,0.0,0.0,-0.0,0.8765222430229187,1726474328.5566075,-3.115183189258425,-1.966100046401007,0.4584542434022457
80.51744079589844,0.0,0.0,-0.33000001311302185,0.20999999344348907,0.0,0.0,0.0,-0.0,0.8765222430229187,1726474328.5666752,-3.115195392146497,-1.9660894443536923,0.45813848014027486
80.51744079589844,0.0,0.0,-0.33000001311302185,0.20999999344348907,0.0,0.0,0.0,-0.0,0.8765222430229187,1726474328.5765815,-3.1151831700256616,-1.9660864645502447,0.45859984302410794
80.61976623535156,0.0,0.0,-0.28999999165534973,0.2199999988079071,0.0,0.0,0.0,-0.0,1.0,1726474328.586467,-3.115181004547887,-1.9661141721535171,0.45864684013646134
80.61976623535156,0.0,0.0,-0.28999999165534973,0.2199999988079071,0.0,0.0,0.0,-0.0,1.0,1726474328.5963976,-3.1151596496189553,-1.966093744103853,0.45834358024109184
80.61976623535156,0.0,0.0,-0.28999999165534973,0.2199999988079071,0.0,0.0,0.0,-0.0,1.0,1726474328.606647,-3.1151916400868287,-1.9660857697503316,0.4583764514400623
80.61976623535156,0.0,0.0,-0.28999999165534973,0.2199999988079071,0.0,0.0,0.0,-0.0,1.0,1726474328.6168926,-3.115181909756379,-1.9660895521725303,0.4581809883936002
80.61976623535156,0.0,0.0,-0.28999999165534973,0.2199999988079071,0.0,0.0,0.0,-0.0,1.0,1726474328.626918,-3.11519302641255,-1.9661171307355183,0.45818209876335636
80.61976623535156,0.0,0.0,-0.28999999165534973,0.2199999988079071,0.0,0.0,0.0,-0.0,1.0,1726474328.636642,-3.115184987928247,-1.9660945611394813,0.458342392231242
80.61976623535156,0.0,0.0,-0.28999999165534973,0.2199999988079071,0.0,0.0,0.0,-0.0,1.0,1726474328.6465662,-3.11517845546866,-1.9661105735197373,0.4582267545430725
80.61976623535156,0.0,0.0,-0.28999999165534973,0.2199999988079071,0.0,0.0,0.0,-0.0,1.0,1726474328.6573858,-3.115206910443325,-1.9661114946825193,0.4584607947127274
80.61976623535156,0.0,0.0,-0.28999999165534973,0.2199999988079071,0.0,0.0,0.0,-0.0,1.0,1726474328.6671212,-3.1151949449005634,-1.9660987887350434,0.45843185947890863
80.61976623535156,0.0,0.0,-0.28999999165534973,0.2199999988079071,0.0,0.0,0.0,-0.0,1.0,1726474328.6775234,-3.1151871326663976,-1.9661131618825403,0.45842451578902443
80.71720123291016,0.0,0.0,-0.3799999952316284,0.17000000178813934,-0.001090830541215837,0.0,0.0,-0.0,1.0,1726474328.6873894,-3.115184848642775,-1.966107166391042,0.4582590215952356
80.71720123291016,0.0,0.0,-0.3799999952316284,0.17000000178813934,-0.001090830541215837,0.0,0.0,-0.0,1.0,1726474328.6971855,-3.115188928568829,-1.9661254425505919,0.45860369419713953
80.71720123291016,0.0,0.0,-0.3799999952316284,0.17000000178813934,-0.001090830541215837,0.0,0.0,-0.0,1.0,1726474328.7067397,-3.1151899513883565,-1.9661221616979452,0.45811041475569225
80.71720123291016,0.0,0.0,-0.3799999952316284,0.17000000178813934,-0.001090830541215837,0.0,0.0,-0.0,1.0,1726474328.7172024,-3.1151904873889755,-1.9661039753710283,0.45856538211284015
80.71720123291016,0.0,0.0,-0.3799999952316284,0.17000000178813934,-0.001090830541215837,0.0,0.0,-0.0,1.0,1726474328.7270339,-3.11516936878059,-1.9660949106520313,0.45843497241708914
80.71720123291016,0.0,0.0,-0.3799999952316284,0.17000000178813934,-0.001090830541215837,0.0,0.0,-0.0,1.0,1726474328.7369094,-3.1151905013044456,-1.9661024809784338,0.4586862052241943
80.71720123291016,0.0,0.0,-0.3799999952316284,0.17000000178813934,-0.001090830541215837,0.0,0.0,-0.0,1.0,1726474328.7471645,-3.1151670283349095,-1.9660657699617552,0.45818022985636875
80.71720123291016,0.0,0.0,-0.3799999952316284,0.17000000178813934,-0.001090830541215837,0.0,0.0,-0.0,1.0,1726474328.7571847,-3.1151862122532252,-1.9660877473910634,0.4586814009101045
80.71720123291016,0.0,0.0,-0.3799999952316284,0.17000000178813934,-0.001090830541215837,0.0,0.0,-0.0,1.0,1726474328.7670834,-3.1151988401967627,-1.9661364531773808,0.45826299342659527
80.71720123291016,0.0,0.0,-0.3799999952316284,0.17000000178813934,-0.001090830541215837,0.0,0.0,-0.0,1.0,1726474328.776888,-3.1151708493716743,-1.9660913872380397,0.4582068859135444
80.81511688232422,0.0,0.0,-0.28999999165534973,0.2199999988079071,0.0032724919728934765,0.0,0.0,-0.0,0.6700000166893005,1726474328.7870963,-3.1151599882869125,-1.9661019511043347,0.45836434782312296
80.81511688232422,0.0,0.0,-0.28999999165534973,0.2199999988079071,0.0032724919728934765,0.0,0.0,-0.0,0.6700000166893005,1726474328.7969296,-3.115172600083756,-1.9661009651012105,0.45824652038211217
80.81511688232422,0.0,0.0,-0.28999999165534973,0.2199999988079071,0.0032724919728934765,0.0,0.0,-0.0,0.6700000166893005,1726474328.8072057,-3.1151867690671775,-1.9661011069882846,0.45867812828145504
80.81511688232422,0.0,0.0,-0.28999999165534973,0.2199999988079071,0.0032724919728934765,0.0,0.0,-0.0,0.6700000166893005,1726474328.817083,-3.115204733674374,-1.9660929804274838,0.4585706210844067
80.81511688232422,0.0,0.0,-0.28999999165534973,0.2199999988079071,0.0032724919728934765,0.0,0.0,-0.0,0.6700000166893005,1726474328.8276625,-3.115197991171021,-1.966098478485382,0.45831457750508847
80.81511688232422,0.0,0.0,-0.28999999165534973,0.2199999988079071,0.0032724919728934765,0.0,0.0,-0.0,0.6700000166893005,1726474328.8373842,-3.1151676689079855,-1.9660805641099959,0.458648300159718
80.81511688232422,0.0,0.0,-0.28999999165534973,0.2199999988079071,0.0032724919728934765,0.0,0.0,-0.0,0.6700000166893005,1726474328.847179,-3.1151819305435233,-1.9661133604375158,0.4584948056531427
80.81511688232422,0.0,0.0,-0.28999999165534973,0.2199999988079071,0.0032724919728934765,0.0,0.0,-0.0,0.6700000166893005,1726474328.8569212,-3.115182565971497,-1.9660896855659011,0.45820835812345484
80.81511688232422,0.0,0.0,-0.28999999165534973,0.2199999988079071,0.0032724919728934765,0.0,0.0,-0.0,0.6700000166893005,1726474328.8671443,-3.1151866641185366,-1.9661160783517437,0.4584114463216025
80.81511688232422,0.0,0.0,-0.28999999165534973,0.2199999988079071,0.0032724919728934765,0.0,0.0,-0.0,0.6700000166893005,1726474328.8770306,-3.1151864903959634,-1.966088826612473,0.4585956795774839
80.91400909423828,0.0,0.0,-0.2800000011920929,0.25,0.001090830541215837,0.0,0.0,-0.0,0.3400000035762787,1726474328.887106,-3.11520967626908,-1.9661114378032558,0.458078265722755
80.91400909423828,0.0,0.0,-0.2800000011920929,0.25,0.001090830541215837,0.0,0.0,-0.0,0.3400000035762787,1726474328.8968885,-3.1151748035379083,-1.966081714303031,0.458476822366799
80.91400909423828,0.0,0.0,-0.2800000011920929,0.25,0.001090830541215837,0.0,0.0,-0.0,0.3400000035762787,1726474328.9067717,-3.1151926661123115,-1.966102565676764,0.4582085985779701
80.91400909423828,0.0,0.0,-0.2800000011920929,0.25,0.001090830541215837,0.0,0.0,-0.0,0.3400000035762787,1726474328.9168715,-3.1151837719656648,-1.9661013391848086,0.45848234395547843
80.91400909423828,0.0,0.0,-0.2800000011920929,0.25,0.001090830541215837,0.0,0.0,-0.0,0.3400000035762787,1726474328.9270487,-3.11518251781777,-1.9660815910116902,0.45827771622646307
80.91400909423828,0.0,0.0,-0.2800000011920929,0.25,0.001090830541215837,0.0,0.0,-0.0,0.3400000035762787,1726474328.936917,-3.115188433994103,-1.9660967564583873,0.4584088889525324
80.91400909423828,0.0,0.0,-0.2800000011920929,0.25,0.001090830541215837,0.0,0.0,-0.0,0.3400000035762787,1726474328.9469566,-3.1151920075827757,-1.9661123921247243,0.45825655817601807
80.91400909423828,0.0,0.0,-0.2800000011920929,0.25,0.001090830541215837,0.0,0.0,-0.0,0.3400000035762787,1726474328.9568505,-3.1151915873812004,-1.9661125706934148,0.45840805591122014
80.91400909423828,0.0,0.0,-0.2800000011920929,0.25,0.001090830541215837,0.0,0.0,-0.0,0.3400000035762787,1726474328.9670584,-3.1151827609798155,-1.96609407180779,0.45834658197224704
80.91400909423828,0.0,0.0,-0.2800000011920929,0.25,0.001090830541215837,0.0,0.0,-0.0,0.3400000035762787,1726474328.9771125,-3.115203684003304,-1.9661022615685109,0.45840546836246454
81.01570892333984,0.0,0.0,-0.3199999928474426,0.20999999344348907,-0.004363322164863348,0.0,0.0,-0.0,0.009999999776482582,1726474328.987042,-3.115173356607843,-1.9661156748557125,0.45822701783443615
81.01570892333984,0.0,0.0,-0.3199999928474426,0.20999999344348907,-0.004363322164863348,0.0,0.0,-0.0,0.009999999776482582,1726474328.996985,-3.1151796812295665,-1.9660971032226082,0.4582636513192477
81.01570892333984,0.0,0.0,-0.3199999928474426,0.20999999344348907,-0.004363322164863348,0.0,0.0,-0.0,0.009999999776482582,1726474329.007035,-3.1152057251829297,-1.9660753568547966,0.4582068899920604
81.01570892333984,0.0,0.0,-0.3199999928474426,0.20999999344348907,-0.004363322164863348,0.0,0.0,-0.0,0.009999999776482582,1726474329.0170956,-3.1152119874093396,-1.966098046198782,0.4584281977518368
81.01570892333984,0.0,0.0,-0.3199999928474426,0.20999999344348907,-0.004363322164863348,0.0,0.0,-0.0,0.009999999776482582,1726474329.0271702,-3.1152002630531364,-1.966093537037391,0.458525478141386
81.01570892333984,0.0,0.0,-0.3199999928474426,0.20999999344348907,-0.004363322164863348,0.0,0.0,-0.0,0.009999999776482582,1726474329.0369198,-3.115179331996981,-1.9661018351235044,0.4583072079848787
81.01570892333984,0.0,0.0,-0.3199999928474426,0.20999999344348907,-0.004363322164863348,0.0,0.0,-0.0,0.009999999776482582,1726474329.0471928,-3.115194075392159,-1.9660914121045385,0.45838355260527314
81.01570892333984,0.0,0.0,-0.3199999928474426,0.20999999344348907,-0.004363322164863348,0.0,0.0,-0.0,0.009999999776482582,1726474329.057432,-3.1151638575810443,-1.9661100299764964,0.45832750498271857
81.01570892333984,0.0,0.0,-0.3199999928474426,0.20999999344348907,-0.004363322164863348,0.0,0.0,-0.0,0.009999999776482582,1726474329.067228,-3.115177202240131,-1.9661075738005322,0.45828791248091927
81.01570892333984,0.0,0.0,-0.3199999928474426,0.20999999344348907,-0.004363322164863348,0.0,0.0,-0.0,0.009999999776482582,1726474329.0775793,-3.115189823119233,-1.966084255787313,0.4583817745394981
81.11412811279297,0.0,0.0,-0.3799999952316284,0.18000000715255737,0.0,0.0,0.0,-0.0,0.3400000035762787,1726474329.08761,-3.115178568594782,-1.9660939072227952,0.45825590236660896
81.11412811279297,0.0,0.0,-0.3799999952316284,0.18000000715255737,0.0,0.0,0.0,-0.0,0.3400000035762787,1726474329.0970943,-3.11520424027464,-1.9661015223472786,0.4584294827673633
81.11412811279297,0.0,0.0,-0.3799999952316284,0.18000000715255737,0.0,0.0,0.0,-0.0,0.3400000035762787,1726474329.1078482,-3.1151864365575883,-1.9661101146108932,0.4581606940755449
81.11412811279297,0.0,0.0,-0.3799999952316284,0.18000000715255737,0.0,0.0,0.0,-0.0,0.3400000035762787,1726474329.117247,-3.1151638943017814,-1.966091729209985,0.45839144522769787
81.11412811279297,0.0,0.0,-0.3799999952316284,0.18000000715255737,0.0,0.0,0.0,-0.0,0.3400000035762787,1726474329.1269693,-3.1151826799890157,-1.9661109076563876,0.45839294309943146
81.11412811279297,0.0,0.0,-0.3799999952316284,0.18000000715255737,0.0,0.0,0.0,-0.0,0.3400000035762787,1726474329.1370525,-3.115193957487006,-1.966095445464476,0.4583585614415271
81.11412811279297,0.0,0.0,-0.3799999952316284,0.18000000715255737,0.0,0.0,0.0,-0.0,0.3400000035762787,1726474329.1469269,-3.115181732660182,-1.9661073402987193,0.4581854904414807
81.11412811279297,0.0,0.0,-0.3799999952316284,0.18000000715255737,0.0,0.0,0.0,-0.0,0.3400000035762787,1726474329.157035,-3.115182674007209,-1.9661071234705814,0.45827438334443127
81.11412811279297,0.0,0.0,-0.3799999952316284,0.18000000715255737,0.0,0.0,0.0,-0.0,0.3400000035762787,1726474329.1669254,-3.115185962336488,-1.9661030416133942,0.458358514826182
81.11412811279297,0.0,0.0,-0.3799999952316284,0.18000000715255737,0.0,0.0,0.0,-0.0,0.3400000035762787,1726474329.1770914,-3.1151980991518875,-1.9661172264247144,0.4582605686290268
81.21581268310547,0.0,0.0,-0.28999999165534973,0.23999999463558197,-0.001090830541215837,0.0,0.0,-0.0,0.009999999776482582,1726474329.187002,-3.115193306028959,-1.9660940496173498,0.4581964065476535
81.21581268310547,0.0,0.0,-0.28999999165534973,0.23999999463558197,-0.001090830541215837,0.0,0.0,-0.0,0.009999999776482582,1726474329.196921,-3.1151733070525607,-1.9660767125392042,0.4579414152645315
81.21581268310547,0.0,0.0,-0.28999999165534973,0.23999999463558197,-0.001090830541215837,0.0,0.0,-0.0,0.009999999776482582,1726474329.2070355,-3.1152167746683603,-1.9660906924245873,0.4580874002342392
81.21581268310547,0.0,0.0,-0.28999999165534973,0.23999999463558197,-0.001090830541215837,0.0,0.0,-0.0,0.009999999776482582,1726474329.2170396,-3.115202549904006,-1.9661056946553195,0.45849024287401624
81.21581268310547,0.0,0.0,-0.28999999165534973,0.23999999463558197,-0.001090830541215837,0.0,0.0,-0.0,0.009999999776482582,1726474329.2273357,-3.1151643163107594,-1.9661361389586143,0.45831843454044163
81.21581268310547,0.0,0.0,-0.28999999165534973,0.23999999463558197,-0.001090830541215837,0.0,0.0,-0.0,0.009999999776482582,1726474329.236175,-3.1151912110328484,-1.9661022846109446,0.4585165798496821
81.21581268310547,0.0,0.0,-0.28999999165534973,0.23999999463558197,-0.001090830541215837,0.0,0.0,-0.0,0.009999999776482582,1726474329.2467592,-3.1151778666652445,-1.9660986588319462,0.45813070911626336
81.21581268310547,0.0,0.0,-0.28999999165534973,0.23999999463558197,-0.001090830541215837,0.0,0.0,-0.0,0.009999999776482582,1726474329.2562318,-3.1151925093710386,-1.9661134380953034,0.4586864358583829
81.21581268310547,0.0,0.0,-0.28999999165534973,0.23999999463558197,-0.001090830541215837,0.0,0.0,-0.0,0.009999999776482582,1726474329.2668443,-3.115199548291204,-1.9661157880766136,0.4584015650757193
81.21581268310547,0.0,0.0,-0.28999999165534973,0.23999999463558197,-0.001090830541215837,0.0,0.0,-0.0,0.009999999776482582,1726474329.2764478,-3.115164000303002,-1.96609413168904,0.4582085919152355
81.21581268310547,0.0,0.0,-0.28999999165534973,0.23999999463558197,-0.001090830541215837,0.0,0.0,-0.0,0.009999999776482582,1726474329.2867184,-3.11517524906086,-1.966100099323004,0.4583466435683792
81.31956481933594,0.0,0.0,-0.3199999928474426,0.20000000298023224,0.0,0.0,0.0,-0.0,-0.0,1726474329.2964125,-3.115181942410386,-1.9661063321722132,0.45824734428989017
81.31956481933594,0.0,0.0,-0.3199999928474426,0.20000000298023224,0.0,0.0,0.0,-0.0,-0.0,1726474329.306873,-3.1151752003743423,-1.9660867897189458,0.45832115386873634
81.31956481933594,0.0,0.0,-0.3199999928474426,0.20000000298023224,0.0,0.0,0.0,-0.0,-0.0,1726474329.3168938,-3.1151809423714467,-1.9660893937676813,0.4585856129641704
81.31956481933594,0.0,0.0,-0.3199999928474426,0.20000000298023224,0.0,0.0,0.0,-0.0,-0.0,1726474329.32726,-3.115190837509005,-1.9660902893251122,0.4582334979499683
81.31956481933594,0.0,0.0,-0.3199999928474426,0.20000000298023224,0.0,0.0,0.0,-0.0,-0.0,1726474329.337038,-3.1151853344800196,-1.9660923226898275,0.45843387478207975
81.31956481933594,0.0,0.0,-0.3199999928474426,0.20000000298023224,0.0,0.0,0.0,-0.0,-0.0,1726474329.347053,-3.1151715298912728,-1.9660956553008273,0.4580441907474701
81.31956481933594,0.0,0.0,-0.3199999928474426,0.20000000298023224,0.0,0.0,0.0,-0.0,-0.0,1726474329.357426,-3.115201591824884,-1.966104432132815,0.45840045574422567
81.31956481933594,0.0,0.0,-0.3199999928474426,0.20000000298023224,0.0,0.0,0.0,-0.0,-0.0,1726474329.3671405,-3.1151736589077483,-1.9661085541156476,0.4584156354328118
81.31956481933594,0.0,0.0,-0.3199999928474426,0.20000000298023224,0.0,0.0,0.0,-0.0,-0.0,1726474329.3771367,-3.1151962746346653,-1.9661120272013008,0.4585108994381005
81.4156265258789,0.0,0.0,-0.27000001072883606,0.2199999988079071,0.001090830541215837,0.0,0.0,-0.0,-0.0,1726474329.3870556,-3.115191226315487,-1.9661058498449662,0.45825571391517095
81.4156265258789,0.0,0.0,-0.27000001072883606,0.2199999988079071,0.001090830541215837,0.0,0.0,-0.0,-0.0,1726474329.3970258,-3.115180307531234,-1.9661113474647047,0.45817734242860847
81.4156265258789,0.0,0.0,-0.27000001072883606,0.2199999988079071,0.001090830541215837,0.0,0.0,-0.0,-0.0,1726474329.4071457,-3.1151980436148774,-1.9660740029669044,0.4584203037375328
81.4156265258789,0.0,0.0,-0.27000001072883606,0.2199999988079071,0.001090830541215837,0.0,0.0,-0.0,-0.0,1726474329.4171698,-3.11517417964586,-1.9661249104372218,0.4582377602730449
81.4156265258789,0.0,0.0,-0.27000001072883606,0.2199999988079071,0.001090830541215837,0.0,0.0,-0.0,-0.0,1726474329.4273894,-3.1151832528604975,-1.9660918807582237,0.4584912538730862
81.4156265258789,0.0,0.0,-0.27000001072883606,0.2199999988079071,0.001090830541215837,0.0,0.0,-0.0,-0.0,1726474329.4369702,-3.1151939830767605,-1.9661188401195597,0.458397492981354
81.4156265258789,0.0,0.0,-0.27000001072883606,0.2199999988079071,0.001090830541215837,0.0,0.0,-0.0,-0.0,1726474329.4471068,-3.1151783248448246,-1.9661073346878386,0.45830700437003635
81.4156265258789,0.0,0.0,-0.27000001072883606,0.2199999988079071,0.001090830541215837,0.0,0.0,-0.0,-0.0,1726474329.457046,-3.115173140887313,-1.9660968469882592,0.45860356597207813
81.4156265258789,0.0,0.0,-0.27000001072883606,0.2199999988079071,0.001090830541215837,0.0,0.0,-0.0,-0.0,1726474329.466876,-3.1151789805490377,-1.9661029761812827,0.45820095476677986
81.4156265258789,0.0,0.0,-0.27000001072883606,0.2199999988079071,0.001090830541215837,0.0,0.0,-0.0,-0.0,1726474329.4770672,-3.115194912637012,-1.9660851598857254,0.45832856294153657
81.51924896240234,0.0,0.0,-0.33000001311302185,0.20000000298023224,0.002181661082431674,0.0,0.0,-0.0,-0.0,1726474329.487421,-3.1151692592075007,-1.9660885399417523,0.4583124810764355
81.51924896240234,0.0,0.0,-0.33000001311302185,0.20000000298023224,0.002181661082431674,0.0,0.0,-0.0,-0.0,1726474329.4970775,-3.115182196207651,-1.9660976691447392,0.4582523949960998
81.51924896240234,0.0,0.0,-0.33000001311302185,0.20000000298023224,0.002181661082431674,0.0,0.0,-0.0,-0.0,1726474329.5070481,-3.115180438036773,-1.9661398180600203,0.4586264457021423
81.51924896240234,0.0,0.0,-0.33000001311302185,0.20000000298023224,0.002181661082431674,0.0,0.0,-0.0,-0.0,1726474329.517247,-3.1151696360101115,-1.9660886873624523,0.45832471776540545
81.51924896240234,0.0,0.0,-0.33000001311302185,0.20000000298023224,0.002181661082431674,0.0,0.0,-0.0,-0.0,1726474329.5273468,-3.115168114038365,-1.9660840176836163,0.4582345297976047
81.51924896240234,0.0,0.0,-0.33000001311302185,0.20000000298023224,0.002181661082431674,0.0,0.0,-0.0,-0.0,1726474329.537101,-3.115172149796559,-1.966114268837153,0.45852435467295377
81.51924896240234,0.0,0.0,-0.33000001311302185,0.20000000298023224,0.002181661082431674,0.0,0.0,-0.0,-0.0,1726474329.5470803,-3.115197704521285,-1.9661113190967574,0.4584257668069674
81.51924896240234,0.0,0.0,-0.33000001311302185,0.20000000298023224,0.002181661082431674,0.0,0.0,-0.0,-0.0,1726474329.5570424,-3.1151681450153355,-1.9661050854390882,0.4586565282169376
81.51924896240234,0.0,0.0,-0.33000001311302185,0.20000000298023224,0.002181661082431674,0.0,0.0,-0.0,-0.0,1726474329.5673006,-3.1151929248290657,-1.966106594100543,0.4584069775526791
81.51924896240234,0.0,0.0,-0.33000001311302185,0.20000000298023224,0.002181661082431674,0.0,0.0,-0.0,-0.0,1726474329.5772204,-3.1151880042616305,-1.9661023690351942,0.45823492764138885
81.61518859863281,0.0,0.0,-0.3799999952316284,0.1899999976158142,0.0,0.0,0.0,-0.0,-0.0,1726474329.5871966,-3.115162954594035,-1.966107668068421,0.4582394562495158
81.61518859863281,0.0,0.0,-0.3799999952316284,0.1899999976158142,0.0,0.0,0.0,-0.0,-0.0,1726474329.5969265,-3.1151914060417183,-1.9661001659254709,0.45827474443966953
81.61518859863281,0.0,0.0,-0.3799999952316284,0.1899999976158142,0.0,0.0,0.0,-0.0,-0.0,1726474329.6071224,-3.1151818669515094,-1.9661073931716617,0.45860832409759644
81.61518859863281,0.0,0.0,-0.3799999952316284,0.1899999976158142,0.0,0.0,0.0,-0.0,-0.0,1726474329.6168993,-3.1151834069715316,-1.9660870247866282,0.4580476554097783
81.61518859863281,0.0,0.0,-0.3799999952316284,0.1899999976158142,0.0,0.0,0.0,-0.0,-0.0,1726474329.6272795,-3.115198701772275,-1.9661034587326904,0.4584006144302545
81.61518859863281,0.0,0.0,-0.3799999952316284,0.1899999976158142,0.0,0.0,0.0,-0.0,-0.0,1726474329.6371565,-3.115186906607353,-1.9661017668314746,0.4583848921612743
81.61518859863281,0.0,0.0,-0.3799999952316284,0.1899999976158142,0.0,0.0,0.0,-0.0,-0.0,1726474329.647144,-3.115191003537115,-1.9661156577083674,0.45849879980689556
81.61518859863281,0.0,0.0,-0.3799999952316284,0.1899999976158142,0.0,0.0,0.0,-0.0,-0.0,1726474329.657345,-3.1151676717952546,-1.966088712187528,0.4582842243249577
81.61518859863281,0.0,0.0,-0.3799999952316284,0.1899999976158142,0.0,0.0,0.0,-0.0,-0.0,1726474329.6668527,-3.115183177109173,-1.9661207903535796,0.4583751010397098
81.61518859863281,0.0,0.0,-0.3799999952316284,0.1899999976158142,0.0,0.0,0.0,-0.0,-0.0,1726474329.677019,-3.1151816037596984,-1.9661012029836542,0.45844009911470474
81.71633911132812,0.0,0.0,-0.27000001072883606,0.2199999988079071,0.001090830541215837,0.0,0.0,-0.0,-0.0,1726474329.6871006,-3.115182745211202,-1.9661128760172908,0.45833735624267474
81.71633911132812,0.0,0.0,-0.27000001072883606,0.2199999988079071,0.001090830541215837,0.0,0.0,-0.0,-0.0,1726474329.6973026,-3.1151861202710287,-1.9660860377939282,0.45843838793518604
81.71633911132812,0.0,0.0,-0.27000001072883606,0.2199999988079071,0.001090830541215837,0.0,0.0,-0.0,-0.0,1726474329.706734,-3.1151914841982147,-1.9661140136458337,0.4582185746829766
81.71633911132812,0.0,0.0,-0.27000001072883606,0.2199999988079071,0.001090830541215837,0.0,0.0,-0.0,-0.0,1726474329.7170901,-3.1151947979406778,-1.9661071184432857,0.45818459033585107
81.71633911132812,0.0,0.0,-0.27000001072883606,0.2199999988079071,0.001090830541215837,0.0,0.0,-0.0,-0.0,1726474329.7270563,-3.1151995015111167,-1.9661120615435743,0.4586015468145249
81.71633911132812,0.0,0.0,-0.27000001072883606,0.2199999988079071,0.001090830541215837,0.0,0.0,-0.0,-0.0,1726474329.7370346,-3.1151770029667434,-1.9661052435669883,0.45836451076455065
81.71633911132812,0.0,0.0,-0.27000001072883606,0.2199999988079071,0.001090830541215837,0.0,0.0,-0.0,-0.0,1726474329.747003,-3.115201498299497,-1.9661150188726544,0.45822738050219614
81.71633911132812,0.0,0.0,-0.27000001072883606,0.2199999988079071,0.001090830541215837,0.0,0.0,-0.0,-0.0,1726474329.756787,-3.1151809166190323,-1.9661045231943481,0.4585324398537945
81.71633911132812,0.0,0.0,-0.27000001072883606,0.2199999988079071,0.001090830541215837,0.0,0.0,-0.0,-0.0,1726474329.7670946,-3.1151924279717336,-1.9661094915291117,0.4584869571178238
81.71633911132812,0.0,0.0,-0.27000001072883606,0.2199999988079071,0.001090830541215837,0.0,0.0,-0.0,-0.0,1726474329.777155,-3.1151868706381527,-1.9660779523545147,0.4584571481110846
81.8162612915039,0.0,0.0,-0.33000001311302185,0.20000000298023224,-0.001090830541215837,0.0,0.0,-0.0,-0.0,1726474329.786806,-3.1151776903026627,-1.9661053390900174,0.4584923338791314
81.8162612915039,0.0,0.0,-0.33000001311302185,0.20000000298023224,-0.001090830541215837,0.0,0.0,-0.0,-0.0,1726474329.7969406,-3.115197472275213,-1.9660852886543434,0.4582625622608084
81.8162612915039,0.0,0.0,-0.33000001311302185,0.20000000298023224,-0.001090830541215837,0.0,0.0,-0.0,-0.0,1726474329.8070793,-3.1152090387342897,-1.966110600041272,0.4585671710963988
81.8162612915039,0.0,0.0,-0.33000001311302185,0.20000000298023224,-0.001090830541215837,0.0,0.0,-0.0,-0.0,1726474329.8170385,-3.1151885609533796,-1.9660889428322152,0.4583168422425629
81.8162612915039,0.0,0.0,-0.33000001311302185,0.20000000298023224,-0.001090830541215837,0.0,0.0,-0.0,-0.0,1726474329.8271978,-3.1151807192863075,-1.9661143619242787,0.4586361684413114
81.8162612915039,0.0,0.0,-0.33000001311302185,0.20000000298023224,-0.001090830541215837,0.0,0.0,-0.0,-0.0,1726474329.8371053,-3.1151640150387854,-1.9661071706508553,0.45840962364025895
81.8162612915039,0.0,0.0,-0.33000001311302185,0.20000000298023224,-0.001090830541215837,0.0,0.0,-0.0,-0.0,1726474329.84709,-3.1151768047394106,-1.96609664862282,0.45830710361168286
81.8162612915039,0.0,0.0,-0.33000001311302185,0.20000000298023224,-0.001090830541215837,0.0,0.0,-0.0,-0.0,1726474329.8572476,-3.1151801320169925,-1.9660620571862861,0.4584507510251844
81.8162612915039,0.0,0.0,-0.33000001311302185,0.20000000298023224,-0.001090830541215837,0.0,0.0,-0.0,-0.0,1726474329.8668666,-3.1151974236081017,-1.9660860009445773,0.45846277241033717
81.8162612915039,0.0,0.0,-0.33000001311302185,0.20000000298023224,-0.001090830541215837,0.0,0.0,-0.0,-0.0,1726474329.8771348,-3.115180846683453,-1.9660867005390208,0.458405348811703
81.91416931152344,0.0,0.0,-0.2800000011920929,0.23000000417232513,0.002181661082431674,0.0,0.0,-0.0,-0.0,1726474329.8872826,-3.1151893929607706,-1.9661089922667017,0.45838699908049413
81.91416931152344,0.0,0.0,-0.2800000011920929,0.23000000417232513,0.002181661082431674,0.0,0.0,-0.0,-0.0,1726474329.8969462,-3.115168778177134,-1.966089972885092,0.45819239108128107
81.91416931152344,0.0,0.0,-0.2800000011920929,0.23000000417232513,0.002181661082431674,0.0,0.0,-0.0,-0.0,1726474329.907338,-3.1151755985349743,-1.9661074382603851,0.45841293763088886
81.91416931152344,0.0,0.0,-0.2800000011920929,0.23000000417232513,0.002181661082431674,0.0,0.0,-0.0,-0.0,1726474329.9173467,-3.1151930065031275,-1.9661138710844026,0.4585965605880606
81.91416931152344,0.0,0.0,-0.2800000011920929,0.23000000417232513,0.002181661082431674,0.0,0.0,-0.0,-0.0,1726474329.9268165,-3.115194552469973,-1.9660861987735667,0.45823406337365297
81.91416931152344,0.0,0.0,-0.2800000011920929,0.23000000417232513,0.002181661082431674,0.0,0.0,-0.0,-0.0,1726474329.936838,-3.1151725407579285,-1.9661160760362888,0.458530611157531
81.91416931152344,0.0,0.0,-0.2800000011920929,0.23000000417232513,0.002181661082431674,0.0,0.0,-0.0,-0.0,1726474329.9470947,-3.115176594639409,-1.9661020982285395,0.45845208239239177
81.91416931152344,0.0,0.0,-0.2800000011920929,0.23000000417232513,0.002181661082431674,0.0,0.0,-0.0,-0.0,1726474329.956815,-3.115187135214062,-1.966111033988041,0.45824379972668716
81.91416931152344,0.0,0.0,-0.2800000011920929,0.23000000417232513,0.002181661082431674,0.0,0.0,-0.0,-0.0,1726474329.9670923,-3.1151745523749326,-1.9661033042975657,0.45843145978361083
81.91416931152344,0.0,0.0,-0.2800000011920929,0.23000000417232513,0.002181661082431674,0.0,0.0,-0.0,-0.0,1726474329.977013,-3.1151968064891116,-1.966103530769956,0.4584190889111002
82.012451171875,0.0,0.0,-0.3499999940395355,0.17000000178813934,0.0,0.0,0.0,-0.0,-0.0,1726474329.98696,-3.115178100114459,-1.966115703926032,0.45840083823969446
82.012451171875,0.0,0.0,-0.3499999940395355,0.17000000178813934,0.0,0.0,0.0,-0.0,-0.0,1726474329.9969049,-3.1151613036098142,-1.9660998100233784,0.45848452716499866
82.012451171875,0.0,0.0,-0.3499999940395355,0.17000000178813934,0.0,0.0,0.0,-0.0,-0.0,1726474330.0070906,-3.1151794790889458,-1.9660960961480025,0.4583972720285816
82.012451171875,0.0,0.0,-0.3499999940395355,0.17000000178813934,0.0,0.0,0.0,-0.0,-0.0,1726474330.0170407,-3.1152090424781393,-1.9661145838732097,0.45836053801067866
82.012451171875,0.0,0.0,-0.3499999940395355,0.17000000178813934,0.0,0.0,0.0,-0.0,-0.0,1726474330.027042,-3.1151907998394237,-1.966101792993359,0.4586744480413355
82.012451171875,0.0,0.0,-0.3499999940395355,0.17000000178813934,0.0,0.0,0.0,-0.0,-0.0,1726474330.0368125,-3.115183715963492,-1.9660968695678984,0.45845925536823073
82.012451171875,0.0,0.0,-0.3499999940395355,0.17000000178813934,0.0,0.0,0.0,-0.0,-0.0,1726474330.0471365,-3.1151818223854115,-1.966084441338831,0.4582942533930641
82.012451171875,0.0,0.0,-0.3499999940395355,0.17000000178813934,0.0,0.0,0.0,-0.0,-0.0,1726474330.0571883,-3.115177490651361,-1.9661017736033648,0.45868780480247506
82.012451171875,0.0,0.0,-0.3499999940395355,0.17000000178813934,0.0,0.0,0.0,-0.0,-0.0,1726474330.0671968,-3.1151923959371395,-1.966111359215824,0.45848476249223524
82.012451171875,0.0,0.0,-0.3499999940395355,0.17000000178813934,0.0,0.0,0.0,-0.0,-0.0,1726474330.0774226,-3.1151564536681033,-1.9661093051062846,0.45816871988245955
82.1135482788086,0.0,0.0,-0.3400000035762787,0.20000000298023224,-0.002181661082431674,0.0,0.0,-0.0,-0.0,1726474330.0876186,-3.1152047210339133,-1.966100129882192,0.4585854930197198
82.1135482788086,0.0,0.0,-0.3400000035762787,0.20000000298023224,-0.002181661082431674,0.0,0.0,-0.0,-0.0,1726474330.0969982,-3.115199655122902,-1.9661018958354421,0.4584847593606141
82.1135482788086,0.0,0.0,-0.3400000035762787,0.20000000298023224,-0.002181661082431674,0.0,0.0,-0.0,-0.0,1726474330.1075957,-3.1151881381365567,-1.9661033226572067,0.45840650150240814
82.1135482788086,0.0,0.0,-0.3400000035762787,0.20000000298023224,-0.002181661082431674,0.0,0.0,-0.0,-0.0,1726474330.1173072,-3.115180321795783,-1.9660827371614644,0.45809745022141196
82.1135482788086,0.0,0.0,-0.3400000035762787,0.20000000298023224,-0.002181661082431674,0.0,0.0,-0.0,-0.0,1726474330.127195,-3.1151894017880433,-1.96608812806306,0.45832340491469226
82.1135482788086,0.0,0.0,-0.3400000035762787,0.20000000298023224,-0.002181661082431674,0.0,0.0,-0.0,-0.0,1726474330.1370413,-3.1151914254902584,-1.9661052076629395,0.4583197763671501
82.1135482788086,0.0,0.0,-0.3400000035762787,0.20000000298023224,-0.002181661082431674,0.0,0.0,-0.0,-0.0,1726474330.1469545,-3.115170498780954,-1.966108531229891,0.4582080292754321
82.1135482788086,0.0,0.0,-0.3400000035762787,0.20000000298023224,-0.002181661082431674,0.0,0.0,-0.0,-0.0,1726474330.157332,-3.115199351109432,-1.966103718828439,0.45810418735088043
82.1135482788086,0.0,0.0,-0.3400000035762787,0.20000000298023224,-0.002181661082431674,0.0,0.0,-0.0,-0.0,1726474330.1671097,-3.1152082494739464,-1.9661128533391474,0.45814771222633377
82.21044158935547,0.0,0.0,-0.2800000011920929,0.20999999344348907,-0.001090830541215837,0.0,0.0,-0.0,-0.0,1726474330.1771762,-3.115188509708458,-1.9660940989201607,0.4583056891425646
82.21044158935547,0.0,0.0,-0.2800000011920929,0.20999999344348907,-0.001090830541215837,0.0,0.0,-0.0,-0.0,1726474330.1869814,-3.1151752749441988,-1.9660983636193685,0.4582121293709164
82.21044158935547,0.0,0.0,-0.2800000011920929,0.20999999344348907,-0.001090830541215837,0.0,0.0,-0.0,-0.0,1726474330.1971064,-3.115168901340904,-1.9661060896031082,0.45871416164489853
82.21044158935547,0.0,0.0,-0.2800000011920929,0.20999999344348907,-0.001090830541215837,0.0,0.0,-0.0,-0.0,1726474330.2071223,-3.1151997560036357,-1.9660937124303086,0.45813952579085465
82.21044158935547,0.0,0.0,-0.2800000011920929,0.20999999344348907,-0.001090830541215837,0.0,0.0,-0.0,-0.0,1726474330.2171872,-3.115182397097049,-1.966093646903261,0.458356410295837
82.21044158935547,0.0,0.0,-0.2800000011920929,0.20999999344348907,-0.001090830541215837,0.0,0.0,-0.0,-0.0,1726474330.2273912,-3.1152081486762895,-1.966099849047064,0.4584122326209163
82.21044158935547,0.0,0.0,-0.2800000011920929,0.20999999344348907,-0.001090830541215837,0.0,0.0,-0.0,-0.0,1726474330.2372158,-3.115168340676318,-1.966087209618321,0.4583852122695229
82.21044158935547,0.0,0.0,-0.2800000011920929,0.20999999344348907,-0.001090830541215837,0.0,0.0,-0.0,-0.0,1726474330.2470906,-3.1151786192289634,-1.9660787600884033,0.45846119354817694
82.21044158935547,0.0,0.0,-0.2800000011920929,0.20999999344348907,-0.001090830541215837,0.0,0.0,-0.0,-0.0,1726474330.25718,-3.1152009719130347,-1.9661050352687557,0.4585189459029425
82.21044158935547,0.0,0.0,-0.2800000011920929,0.20999999344348907,-0.001090830541215837,0.0,0.0,-0.0,-0.0,1726474330.2672594,-3.115179598346516,-1.9660909631683683,0.4583076677842068
82.30998229980469,0.0,0.0,-0.36000001430511475,0.17000000178813934,0.001090830541215837,0.0,0.0,-0.0,-0.0,1726474330.277221,-3.115175426043505,-1.966114241305779,0.45845736336914494
82.30998229980469,0.0,0.0,-0.36000001430511475,0.17000000178813934,0.001090830541215837,0.0,0.0,-0.0,-0.0,1726474330.287556,-3.1151780999848233,-1.9661015069197438,0.4584654652313527
82.30998229980469,0.0,0.0,-0.36000001430511475,0.17000000178813934,0.001090830541215837,0.0,0.0,-0.0,-0.0,1726474330.2970445,-3.1151981897511125,-1.9660893532718298,0.45815722054088526
82.30998229980469,0.0,0.0,-0.36000001430511475,0.17000000178813934,0.001090830541215837,0.0,0.0,-0.0,-0.0,1726474330.3069088,-3.1151786795288023,-1.966118327651561,0.45840204072083973
82.30998229980469,0.0,0.0,-0.36000001430511475,0.17000000178813934,0.001090830541215837,0.0,0.0,-0.0,-0.0,1726474330.3173044,-3.1151946414315654,-1.966087662107876,0.4579596839578811
82.30998229980469,0.0,0.0,-0.36000001430511475,0.17000000178813934,0.001090830541215837,0.0,0.0,-0.0,-0.0,1726474330.3272517,-3.115199994340556,-1.9660943430037405,0.4582033961031165
82.30998229980469,0.0,0.0,-0.36000001430511475,0.17000000178813934,0.001090830541215837,0.0,0.0,-0.0,-0.0,1726474330.336953,-3.11517267633521,-1.9661305392603547,0.45836079129547275
82.30998229980469,0.0,0.0,-0.36000001430511475,0.17000000178813934,0.001090830541215837,0.0,0.0,-0.0,-0.0,1726474330.3473058,-3.115207817113239,-1.9660889592185746,0.4585154691567596
82.30998229980469,0.0,0.0,-0.36000001430511475,0.17000000178813934,0.001090830541215837,0.0,0.0,-0.0,-0.0,1726474330.3572202,-3.115191540082513,-1.9661122788828598,0.4586724497438215
82.30998229980469,0.0,0.0,-0.36000001430511475,0.17000000178813934,0.001090830541215837,0.0,0.0,-0.0,-0.0,1726474330.36693,-3.1151975267264946,-1.9661167576983267,0.4583830357595016
82.30998229980469,0.0,0.0,-0.36000001430511475,0.17000000178813934,0.001090830541215837,0.0,0.0,-0.0,-0.0,1726474330.377423,-3.115185325207272,-1.9661158481728624,0.45839884422366195
82.4129638671875,0.0,0.0,-0.30000001192092896,0.1899999976158142,0.0,0.0,0.0,-0.0,-0.0,1726474330.3870075,-3.1151765038418398,-1.966102223429891,0.4587749778534673
82.4129638671875,0.0,0.0,-0.30000001192092896,0.1899999976158142,0.0,0.0,0.0,-0.0,-0.0,1726474330.3970466,-3.115213212737662,-1.9660987154567688,0.4581288992699524
82.4129638671875,0.0,0.0,-0.30000001192092896,0.1899999976158142,0.0,0.0,0.0,-0.0,-0.0,1726474330.4070847,-3.1151813980985588,-1.9661158482817114,0.45856903876892186
82.4129638671875,0.0,0.0,-0.30000001192092896,0.1899999976158142,0.0,0.0,0.0,-0.0,-0.0,1726474330.417249,-3.1151983599915867,-1.966088105708469,0.45836486493900547
82.4129638671875,0.0,0.0,-0.30000001192092896,0.1899999976158142,0.0,0.0,0.0,-0.0,-0.0,1726474330.427186,-3.1151924619236837,-1.9661333028115704,0.45819946179930116
82.4129638671875,0.0,0.0,-0.30000001192092896,0.1899999976158142,0.0,0.0,0.0,-0.0,-0.0,1726474330.4371505,-3.1151997259349384,-1.966106657061168,0.45867879429982716
82.4129638671875,0.0,0.0,-0.30000001192092896,0.1899999976158142,0.0,0.0,0.0,-0.0,-0.0,1726474330.4472287,-3.115193099501423,-1.9661098430559165,0.4583121244037865
82.4129638671875,0.0,0.0,-0.30000001192092896,0.1899999976158142,0.0,0.0,0.0,-0.0,-0.0,1726474330.457023,-3.1152007868589275,-1.9661086136324197,0.45845241051470886
82.4129638671875,0.0,0.0,-0.30000001192092896,0.1899999976158142,0.0,0.0,0.0,-0.0,-0.0,1726474330.4672718,-3.115183857311429,-1.966112173590883,0.4584804482866478
82.50948333740234,0.0,0.0,-0.3799999952316284,0.17000000178813934,0.001090830541215837,0.0,0.0,-0.0,-0.0,1726474330.4776678,-3.1152014335388505,-1.9661178790952025,0.4584270253177377
82.50948333740234,0.0,0.0,-0.3799999952316284,0.17000000178813934,0.001090830541215837,0.0,0.0,-0.0,-0.0,1726474330.4872408,-3.115198025474908,-1.9661033561088537,0.45816319320995835
82.50948333740234,0.0,0.0,-0.3799999952316284,0.17000000178813934,0.001090830541215837,0.0,0.0,-0.0,-0.0,1726474330.497104,-3.1151812179296177,-1.966107428228898,0.458564214098664
82.50948333740234,0.0,0.0,-0.3799999952316284,0.17000000178813934,0.001090830541215837,0.0,0.0,-0.0,-0.0,1726474330.5068755,-3.1152013178184585,-1.9660894274741705,0.45805005422912487
82.50948333740234,0.0,0.0,-0.3799999952316284,0.17000000178813934,0.001090830541215837,0.0,0.0,-0.0,-0.0,1726474330.5176437,-3.1151771162301096,-1.966086350522871,0.45798532223576116
82.50948333740234,0.0,0.0,-0.3799999952316284,0.17000000178813934,0.001090830541215837,0.0,0.0,-0.0,-0.0,1726474330.5271852,-3.115195548419337,-1.9661039254306723,0.45823277164991755
82.50948333740234,0.0,0.0,-0.3799999952316284,0.17000000178813934,0.001090830541215837,0.0,0.0,-0.0,-0.0,1726474330.5369089,-3.1151746550368093,-1.9661003478591137,0.4583981769767223
82.50948333740234,0.0,0.0,-0.3799999952316284,0.17000000178813934,0.001090830541215837,0.0,0.0,-0.0,-0.0,1726474330.547067,-3.115182072993376,-1.966097814772739,0.45825359223954065
82.50948333740234,0.0,0.0,-0.3799999952316284,0.17000000178813934,0.001090830541215837,0.0,0.0,-0.0,-0.0,1726474330.5568724,-3.115179570833691,-1.9660949417701858,0.4580588386803792
82.50948333740234,0.0,0.0,-0.3799999952316284,0.17000000178813934,0.001090830541215837,0.0,0.0,-0.0,-0.0,1726474330.5666635,-3.115194752087022,-1.9660987360382942,0.45851396699392255
82.61054992675781,0.0,0.0,-0.3199999928474426,0.2199999988079071,0.0,0.0,0.0,-0.0,-0.0,1726474330.576655,-3.1151787087944345,-1.966095272161803,0.458548110163188
82.61054992675781,0.0,0.0,-0.3199999928474426,0.2199999988079071,0.0,0.0,0.0,-0.0,-0.0,1726474330.5868862,-3.1151535588935895,-1.9660851782859297,0.4584060672636276
82.61054992675781,0.0,0.0,-0.3199999928474426,0.2199999988079071,0.0,0.0,0.0,-0.0,-0.0,1726474330.5966117,-3.115169028862095,-1.9660913481882685,0.45826840851717027
82.61054992675781,0.0,0.0,-0.3199999928474426,0.2199999988079071,0.0,0.0,0.0,-0.0,-0.0,1726474330.6067567,-3.1152173546778124,-1.9661068060686602,0.45860065471937606
82.61054992675781,0.0,0.0,-0.3199999928474426,0.2199999988079071,0.0,0.0,0.0,-0.0,-0.0,1726474330.6166463,-3.1151735717561637,-1.9661002689401759,0.4582093493677427
82.61054992675781,0.0,0.0,-0.3199999928474426,0.2199999988079071,0.0,0.0,0.0,-0.0,-0.0,1726474330.626984,-3.1151810259918786,-1.9661039050012155,0.45848354397761043
82.61054992675781,0.0,0.0,-0.3199999928474426,0.2199999988079071,0.0,0.0,0.0,-0.0,-0.0,1726474330.6367369,-3.1151730685196513,-1.9661056539758217,0.4585102813969414
82.61054992675781,0.0,0.0,-0.3199999928474426,0.2199999988079071,0.0,0.0,0.0,-0.0,-0.0,1726474330.646717,-3.1151799427942075,-1.9660909256228678,0.4581919719848604
82.61054992675781,0.0,0.0,-0.3199999928474426,0.2199999988079071,0.0,0.0,0.0,-0.0,-0.0,1726474330.65664,-3.1152126464008587,-1.9660966385391578,0.4584801920293223
82.61054992675781,0.0,0.0,-0.3199999928474426,0.2199999988079071,0.0,0.0,0.0,-0.0,-0.0,1726474330.6669064,-3.115192809798601,-1.9661062215641056,0.45842901640758665
82.61054992675781,0.0,0.0,-0.3199999928474426,0.2199999988079071,0.0,0.0,0.0,-0.0,-0.0,1726474330.6773677,-3.115175149840683,-1.9660939456966118,0.45849694082348724
82.71269226074219,0.0,0.0,-0.30000001192092896,0.20999999344348907,-0.002181661082431674,0.0,0.0,-0.0,-0.0,1726474330.687643,-3.1151790440294005,-1.9660899026167162,0.45818024659835427
82.71269226074219,0.0,0.0,-0.30000001192092896,0.20999999344348907,-0.002181661082431674,0.0,0.0,-0.0,-0.0,1726474330.6969063,-3.115219904162165,-1.9661227220040727,0.4585731982517693
82.71269226074219,0.0,0.0,-0.30000001192092896,0.20999999344348907,-0.002181661082431674,0.0,0.0,-0.0,-0.0,1726474330.7066472,-3.1151888362275284,-1.9660976069546379,0.4580443301025981
82.71269226074219,0.0,0.0,-0.30000001192092896,0.20999999344348907,-0.002181661082431674,0.0,0.0,-0.0,-0.0,1726474330.7175727,-3.1151866011374767,-1.966098393943911,0.458117471081817
82.71269226074219,0.0,0.0,-0.30000001192092896,0.20999999344348907,-0.002181661082431674,0.0,0.0,-0.0,-0.0,1726474330.7271693,-3.115216228365925,-1.966105867820536,0.4582134388298125
82.71269226074219,0.0,0.0,-0.30000001192092896,0.20999999344348907,-0.002181661082431674,0.0,0.0,-0.0,-0.0,1726474330.7370389,-3.1151830553512685,-1.9661098698746104,0.4583183109763457
82.71269226074219,0.0,0.0,-0.30000001192092896,0.20999999344348907,-0.002181661082431674,0.0,0.0,-0.0,-0.0,1726474330.7472444,-3.11517370109495,-1.9660870446129517,0.4583641736586826
82.71269226074219,0.0,0.0,-0.30000001192092896,0.20999999344348907,-0.002181661082431674,0.0,0.0,-0.0,-0.0,1726474330.7569342,-3.115178972838002,-1.9661069159930669,0.45830367757273865
82.71269226074219,0.0,0.0,-0.30000001192092896,0.20999999344348907,-0.002181661082431674,0.0,0.0,-0.0,-0.0,1726474330.7672741,-3.1151884612018175,-1.9661028240489333,0.45852567708260583
82.71269226074219,0.0,0.0,-0.30000001192092896,0.20999999344348907,-0.002181661082431674,0.0,0.0,-0.0,-0.0,1726474330.777226,-3.115186000899283,-1.9661101800928826,0.4582770524978165
82.81500244140625,0.0,0.0,-0.3799999952316284,0.17000000178813934,0.0,0.0,0.0,-0.0,-0.0,1726474330.7870958,-3.1151901001935953,-1.966108998741681,0.4582905970432946
82.81500244140625,0.0,0.0,-0.3799999952316284,0.17000000178813934,0.0,0.0,0.0,-0.0,-0.0,1726474330.796987,-3.115177936224265,-1.966122762755102,0.4584391725138295
82.81500244140625,0.0,0.0,-0.3799999952316284,0.17000000178813934,0.0,0.0,0.0,-0.0,-0.0,1726474330.8071237,-3.1151647890831495,-1.966112373266566,0.4583830110452653
82.81500244140625,0.0,0.0,-0.3799999952316284,0.17000000178813934,0.0,0.0,0.0,-0.0,-0.0,1726474330.8170035,-3.1152053779870474,-1.9661044505643275,0.45823354796435206
82.81500244140625,0.0,0.0,-0.3799999952316284,0.17000000178813934,0.0,0.0,0.0,-0.0,-0.0,1726474330.8277485,-3.115199309700113,-1.9660940434322884,0.45836832775871517
82.81500244140625,0.0,0.0,-0.3799999952316284,0.17000000178813934,0.0,0.0,0.0,-0.0,-0.0,1726474330.836879,-3.1151887027282923,-1.9660858419078686,0.458370576043885
82.81500244140625,0.0,0.0,-0.3799999952316284,0.17000000178813934,0.0,0.0,0.0,-0.0,-0.0,1726474330.8471944,-3.1151885353355224,-1.966110357380047,0.4584755867363133
82.81500244140625,0.0,0.0,-0.3799999952316284,0.17000000178813934,0.0,0.0,0.0,-0.0,-0.0,1726474330.8585792,-3.115200002187174,-1.966101869422737,0.4585338298434516
82.81500244140625,0.0,0.0,-0.3799999952316284,0.17000000178813934,0.0,0.0,0.0,-0.0,-0.0,1726474330.8669493,-3.1151694949807682,-1.9661084866323122,0.4584391995099543
82.81500244140625,0.0,0.0,-0.3799999952316284,0.17000000178813934,0.0,0.0,0.0,-0.0,-0.0,1726474330.8768854,-3.1151870194871614,-1.966108393723826,0.45836503041714194
82.91199493408203,0.0,0.0,-0.30000001192092896,0.20999999344348907,0.004363322164863348,0.0,0.0,-0.0,-0.0,1726474330.8872406,-3.1151604505760004,-1.9661110168212443,0.458575699590164
82.91199493408203,0.0,0.0,-0.30000001192092896,0.20999999344348907,0.004363322164863348,0.0,0.0,-0.0,-0.0,1726474330.8969777,-3.1151876377863195,-1.9660979494305535,0.4583479085901119
82.91199493408203,0.0,0.0,-0.30000001192092896,0.20999999344348907,0.004363322164863348,0.0,0.0,-0.0,-0.0,1726474330.9070616,-3.115206206568925,-1.9661092625961276,0.45849585452670594
82.91199493408203,0.0,0.0,-0.30000001192092896,0.20999999344348907,0.004363322164863348,0.0,0.0,-0.0,-0.0,1726474330.9169064,-3.1151857193006585,-1.9661060414720906,0.458185277881003
82.91199493408203,0.0,0.0,-0.30000001192092896,0.20999999344348907,0.004363322164863348,0.0,0.0,-0.0,-0.0,1726474330.9269178,-3.115187365643117,-1.9661036405737957,0.4588498906446786
82.91199493408203,0.0,0.0,-0.30000001192092896,0.20999999344348907,0.004363322164863348,0.0,0.0,-0.0,-0.0,1726474330.9369652,-3.115173106982273,-1.9660997920826322,0.4585074564774187
82.91199493408203,0.0,0.0,-0.30000001192092896,0.20999999344348907,0.004363322164863348,0.0,0.0,-0.0,-0.0,1726474330.9460793,-3.115188005231897,-1.9661061494366263,0.4581827424321192
82.91199493408203,0.0,0.0,-0.30000001192092896,0.20999999344348907,0.004363322164863348,0.0,0.0,-0.0,-0.0,1726474330.9561448,-3.115182835053662,-1.9661113893666842,0.4586053011543078
82.91199493408203,0.0,0.0,-0.30000001192092896,0.20999999344348907,0.004363322164863348,0.0,0.0,-0.0,-0.0,1726474330.9660723,-3.1151731621490093,-1.966119170447545,0.4584504274566398
82.91199493408203,0.0,0.0,-0.30000001192092896,0.20999999344348907,0.004363322164863348,0.0,0.0,-0.0,-0.0,1726474330.9765563,-3.115179971423946,-1.9661147791354874,0.45856786741608646
83.01245880126953,0.0,0.0,-0.38999998569488525,0.1899999976158142,-0.001090830541215837,0.0,0.0,-0.0,-0.0,1726474330.9864776,-3.1151973221238527,-1.9661126975566592,0.4585997105445457
83.01245880126953,0.0,0.0,-0.38999998569488525,0.1899999976158142,-0.001090830541215837,0.0,0.0,-0.0,-0.0,1726474330.9966657,-3.1151795272976344,-1.9661049531755186,0.45826212963738544
83.01245880126953,0.0,0.0,-0.38999998569488525,0.1899999976158142,-0.001090830541215837,0.0,0.0,-0.0,-0.0,1726474331.0065634,-3.1151890267619184,-1.9660836133063484,0.45803957939135975
83.01245880126953,0.0,0.0,-0.38999998569488525,0.1899999976158142,-0.001090830541215837,0.0,0.0,-0.0,-0.0,1726474331.0165875,-3.1152033777844017,-1.9661060230370533,0.4584961366626062
83.01245880126953,0.0,0.0,-0.38999998569488525,0.1899999976158142,-0.001090830541215837,0.0,0.0,-0.0,-0.0,1726474331.0266235,-3.115185744133153,-1.9660938820879161,0.4583026779391521
83.01245880126953,0.0,0.0,-0.38999998569488525,0.1899999976158142,-0.001090830541215837,0.0,0.0,-0.0,-0.0,1726474331.0364382,-3.1151982003174647,-1.9660952310320716,0.4583541571204652
83.01245880126953,0.0,0.0,-0.38999998569488525,0.1899999976158142,-0.001090830541215837,0.0,0.0,-0.0,-0.0,1726474331.046544,-3.1151885058629363,-1.966089002431628,0.45825683913926235
83.01245880126953,0.0,0.0,-0.38999998569488525,0.1899999976158142,-0.001090830541215837,0.0,0.0,-0.0,-0.0,1726474331.0579667,-3.1151968273657817,-1.9660954112660245,0.4581565582853551
83.01245880126953,0.0,0.0,-0.38999998569488525,0.1899999976158142,-0.001090830541215837,0.0,0.0,-0.0,-0.0,1726474331.0672612,-3.1151878798432757,-1.9660935345537898,0.45829062938032117
83.01245880126953,0.0,0.0,-0.38999998569488525,0.1899999976158142,-0.001090830541215837,0.0,0.0,-0.0,-0.0,1726474331.0775633,-3.115187665080587,-1.9661023139364755,0.4582747808336281
83.11409759521484,0.0,0.0,-0.28999999165534973,0.20999999344348907,0.0,0.0,0.0,-0.0,-0.0,1726474331.0876174,-3.115197621628686,-1.9660941407718278,0.45812582398398943
83.11409759521484,0.0,0.0,-0.28999999165534973,0.20999999344348907,0.0,0.0,0.0,-0.0,-0.0,1726474331.0967455,-3.1151967407325842,-1.9660903659273117,0.45828991107842865
83.11409759521484,0.0,0.0,-0.28999999165534973,0.20999999344348907,0.0,0.0,0.0,-0.0,-0.0,1726474331.1066287,-3.1151806039337804,-1.96609534544417,0.4582107595450262
83.11409759521484,0.0,0.0,-0.28999999165534973,0.20999999344348907,0.0,0.0,0.0,-0.0,-0.0,1726474331.117134,-3.1151922511814547,-1.9660996103066806,0.4584746131557319
83.11409759521484,0.0,0.0,-0.28999999165534973,0.20999999344348907,0.0,0.0,0.0,-0.0,-0.0,1726474331.1270633,-3.1151938064412086,-1.966091373598377,0.45845991750326376
83.11409759521484,0.0,0.0,-0.28999999165534973,0.20999999344348907,0.0,0.0,0.0,-0.0,-0.0,1726474331.1369224,-3.115196642373401,-1.9661044029471946,0.4586555638545426
83.11409759521484,0.0,0.0,-0.28999999165534973,0.20999999344348907,0.0,0.0,0.0,-0.0,-0.0,1726474331.1469436,-3.1151821324597875,-1.9660955421032236,0.45825330119422775
83.11409759521484,0.0,0.0,-0.28999999165534973,0.20999999344348907,0.0,0.0,0.0,-0.0,-0.0,1726474331.1569207,-3.115182376217202,-1.9660822763917385,0.45839544350680017
83.11409759521484,0.0,0.0,-0.28999999165534973,0.20999999344348907,0.0,0.0,0.0,-0.0,-0.0,1726474331.167067,-3.1151915457772175,-1.9661027700267029,0.45820590127365146
83.11409759521484,0.0,0.0,-0.28999999165534973,0.20999999344348907,0.0,0.0,0.0,-0.0,-0.0,1726474331.1766307,-3.115188279170962,-1.9660816557266958,0.45806002078523517
83.21199798583984,0.0,0.0,-0.28999999165534973,0.1899999976158142,0.0,0.0,0.0,-0.0,-0.0,1726474331.1867707,-3.1151755203632674,-1.9661066639339206,0.45818820871125776
83.21199798583984,0.0,0.0,-0.28999999165534973,0.1899999976158142,0.0,0.0,0.0,-0.0,-0.0,1726474331.1971955,-3.115195811226571,-1.9660936729868428,0.4584180688369797
83.21199798583984,0.0,0.0,-0.28999999165534973,0.1899999976158142,0.0,0.0,0.0,-0.0,-0.0,1726474331.2071054,-3.1152084745884445,-1.9661045153034176,0.4585390282631306
83.21199798583984,0.0,0.0,-0.28999999165534973,0.1899999976158142,0.0,0.0,0.0,-0.0,-0.0,1726474331.2173712,-3.115197825623519,-1.9660965268509856,0.45818806134811535
83.21199798583984,0.0,0.0,-0.28999999165534973,0.1899999976158142,0.0,0.0,0.0,-0.0,-0.0,1726474331.227338,-3.115187734126597,-1.9660829892107206,0.4582225184889368
83.21199798583984,0.0,0.0,-0.28999999165534973,0.1899999976158142,0.0,0.0,0.0,-0.0,-0.0,1726474331.2372904,-3.1152115912364544,-1.9661064372291432,0.45858083084472895
83.21199798583984,0.0,0.0,-0.28999999165534973,0.1899999976158142,0.0,0.0,0.0,-0.0,-0.0,1726474331.2470767,-3.1151974424797797,-1.9661078241876386,0.4586028646504198
83.21199798583984,0.0,0.0,-0.28999999165534973,0.1899999976158142,0.0,0.0,0.0,-0.0,-0.0,1726474331.256898,-3.1151878973916665,-1.966094379600963,0.4582661845364029
83.21199798583984,0.0,0.0,-0.28999999165534973,0.1899999976158142,0.0,0.0,0.0,-0.0,-0.0,1726474331.267183,-3.1152030345052353,-1.9660987986450353,0.4583216451159995
83.21199798583984,0.0,0.0,-0.28999999165534973,0.1899999976158142,0.0,0.0,0.0,-0.0,-0.0,1726474331.2773836,-3.1151772447849058,-1.9660879187240485,0.4584459868254974
83.31175231933594,0.0,0.0,-0.3400000035762787,0.20000000298023224,0.001090830541215837,0.0,0.0,-0.0,-0.0,1726474331.2874408,-3.1151876933373717,-1.9660848923861987,0.45857998166069386
83.31175231933594,0.0,0.0,-0.3400000035762787,0.20000000298023224,0.001090830541215837,0.0,0.0,-0.0,-0.0,1726474331.2969398,-3.115187178285455,-1.9661132673795678,0.4584677672467364
83.31175231933594,0.0,0.0,-0.3400000035762787,0.20000000298023224,0.001090830541215837,0.0,0.0,-0.0,-0.0,1726474331.3071268,-3.115184469256319,-1.966102601045791,0.458449906833711
83.31175231933594,0.0,0.0,-0.3400000035762787,0.20000000298023224,0.001090830541215837,0.0,0.0,-0.0,-0.0,1726474331.316839,-3.115193335389225,-1.9661107931624608,0.45822431947530307
83.31175231933594,0.0,0.0,-0.3400000035762787,0.20000000298023224,0.001090830541215837,0.0,0.0,-0.0,-0.0,1726474331.327019,-3.1151995480569075,-1.9660986570226087,0.4584218244926239
83.31175231933594,0.0,0.0,-0.3400000035762787,0.20000000298023224,0.001090830541215837,0.0,0.0,-0.0,-0.0,1726474331.3369188,-3.1152016442814325,-1.9660783843131433,0.4582556683075752
83.31175231933594,0.0,0.0,-0.3400000035762787,0.20000000298023224,0.001090830541215837,0.0,0.0,-0.0,-0.0,1726474331.3468544,-3.1151885356432336,-1.966092165173765,0.4585221423680272
83.31175231933594,0.0,0.0,-0.3400000035762787,0.20000000298023224,0.001090830541215837,0.0,0.0,-0.0,-0.0,1726474331.3569224,-3.115200677845897,-1.966100124501445,0.4581849646199139
83.31175231933594,0.0,0.0,-0.3400000035762787,0.20000000298023224,0.001090830541215837,0.0,0.0,-0.0,-0.0,1726474331.3668046,-3.1152103063700314,-1.9661155455938588,0.45824670457871963
83.31175231933594,0.0,0.0,-0.3400000035762787,0.20000000298023224,0.001090830541215837,0.0,0.0,-0.0,-0.0,1726474331.3767905,-3.115173851203491,-1.9661152719301045,0.45840017687393536
83.41358184814453,0.0,0.0,-0.3700000047683716,0.17000000178813934,-0.001090830541215837,0.0,0.0,-0.0,-0.0,1726474331.385972,-3.115200061307227,-1.966106865350146,0.45828136605905384
83.41358184814453,0.0,0.0,-0.3700000047683716,0.17000000178813934,-0.001090830541215837,0.0,0.0,-0.0,-0.0,1726474331.396071,-3.1151817088006837,-1.9661144680299283,0.45801627689041535
83.41358184814453,0.0,0.0,-0.3700000047683716,0.17000000178813934,-0.001090830541215837,0.0,0.0,-0.0,-0.0,1726474331.406065,-3.115199418224378,-1.9660915441373346,0.45817284130504243
83.41358184814453,0.0,0.0,-0.3700000047683716,0.17000000178813934,-0.001090830541215837,0.0,0.0,-0.0,-0.0,1726474331.4160166,-3.1151959188241465,-1.9660985092092367,0.45831345026371195
83.41358184814453,0.0,0.0,-0.3700000047683716,0.17000000178813934,-0.001090830541215837,0.0,0.0,-0.0,-0.0,1726474331.4268324,-3.1151911581924074,-1.9661141462405927,0.45857299534990303
83.41358184814453,0.0,0.0,-0.3700000047683716,0.17000000178813934,-0.001090830541215837,0.0,0.0,-0.0,-0.0,1726474331.436501,-3.115200277277576,-1.9661028732145418,0.45818070124107674
83.41358184814453,0.0,0.0,-0.3700000047683716,0.17000000178813934,-0.001090830541215837,0.0,0.0,-0.0,-0.0,1726474331.446515,-3.11518448675162,-1.9661000746280946,0.4584355648969352
83.41358184814453,0.0,0.0,-0.3700000047683716,0.17000000178813934,-0.001090830541215837,0.0,0.0,-0.0,-0.0,1726474331.4566758,-3.1151979259279736,-1.9661036843725521,0.4583986831503509
83.41358184814453,0.0,0.0,-0.3700000047683716,0.17000000178813934,-0.001090830541215837,0.0,0.0,-0.0,-0.0,1726474331.4666572,-3.1151892321673453,-1.9661176952450419,0.45838052227520093
83.41358184814453,0.0,0.0,-0.3700000047683716,0.17000000178813934,-0.001090830541215837,0.0,0.0,-0.0,-0.0,1726474331.4764886,-3.11518954523154,-1.966099878802642,0.45827046486512363
83.5118637084961,0.0,0.0,-0.27000001072883606,0.25999999046325684,0.001090830541215837,0.0,0.0,-0.0,-0.0,1726474331.4866729,-3.1151638477094226,-1.9661230144998916,0.4582690556422534
83.5118637084961,0.0,0.0,-0.27000001072883606,0.25999999046325684,0.001090830541215837,0.0,0.0,-0.0,-0.0,1726474331.496532,-3.115209203209384,-1.9661189227288502,0.45834326858565816
83.5118637084961,0.0,0.0,-0.27000001072883606,0.25999999046325684,0.001090830541215837,0.0,0.0,-0.0,-0.0,1726474331.5065887,-3.11519360195758,-1.9660914291089264,0.45807904051247306
83.5118637084961,0.0,0.0,-0.27000001072883606,0.25999999046325684,0.001090830541215837,0.0,0.0,-0.0,-0.0,1726474331.516445,-3.1151781702624626,-1.9660948075732911,0.458274298510123
83.5118637084961,0.0,0.0,-0.27000001072883606,0.25999999046325684,0.001090830541215837,0.0,0.0,-0.0,-0.0,1726474331.5265973,-3.1151830040248076,-1.9660941005445776,0.4582999626058796
83.5118637084961,0.0,0.0,-0.27000001072883606,0.25999999046325684,0.001090830541215837,0.0,0.0,-0.0,-0.0,1726474331.536622,-3.1151736775312573,-1.9660886641754642,0.45811689957188145
83.5118637084961,0.0,0.0,-0.27000001072883606,0.25999999046325684,0.001090830541215837,0.0,0.0,-0.0,-0.0,1726474331.5467913,-3.115181430657642,-1.9661010816325521,0.4584544722305571
83.5118637084961,0.0,0.0,-0.27000001072883606,0.25999999046325684,0.001090830541215837,0.0,0.0,-0.0,-0.0,1726474331.556713,-3.1151973471025283,-1.966103468724486,0.45806793772840054
83.5118637084961,0.0,0.0,-0.27000001072883606,0.25999999046325684,0.001090830541215837,0.0,0.0,-0.0,-0.0,1726474331.5667536,-3.1151964984335603,-1.9661262236508101,0.45821943029569645
83.60969543457031,0.0,0.0,-0.3700000047683716,0.18000000715255737,0.0032724919728934765,0.0,0.0,-0.0,-0.0,1726474331.5764906,-3.1151779709922804,-1.9660933351354677,0.45849070398415415
83.60969543457031,0.0,0.0,-0.3700000047683716,0.18000000715255737,0.0032724919728934765,0.0,0.0,-0.0,-0.0,1726474331.5864959,-3.115175251403846,-1.9660984489585147,0.4582495358984878
83.60969543457031,0.0,0.0,-0.3700000047683716,0.18000000715255737,0.0032724919728934765,0.0,0.0,-0.0,-0.0,1726474331.5966494,-3.115176719320475,-1.9660920741899501,0.4586277337843908
83.60969543457031,0.0,0.0,-0.3700000047683716,0.18000000715255737,0.0032724919728934765,0.0,0.0,-0.0,-0.0,1726474331.6065824,-3.1151900889803015,-1.966109452440741,0.45851814961110515
83.60969543457031,0.0,0.0,-0.3700000047683716,0.18000000715255737,0.0032724919728934765,0.0,0.0,-0.0,-0.0,1726474331.6166606,-3.115172941581653,-1.9661003030157451,0.45838676086719826
83.60969543457031,0.0,0.0,-0.3700000047683716,0.18000000715255737,0.0032724919728934765,0.0,0.0,-0.0,-0.0,1726474331.6266353,-3.115180035219762,-1.9661166300871982,0.4586091587189375
83.60969543457031,0.0,0.0,-0.3700000047683716,0.18000000715255737,0.0032724919728934765,0.0,0.0,-0.0,-0.0,1726474331.6365836,-3.1151960387271975,-1.9660959212606064,0.4587428833059945
83.60969543457031,0.0,0.0,-0.3700000047683716,0.18000000715255737,0.0032724919728934765,0.0,0.0,-0.0,-0.0,1726474331.6465816,-3.1151955893956873,-1.9661121402811421,0.45859403892029577
83.60969543457031,0.0,0.0,-0.3700000047683716,0.18000000715255737,0.0032724919728934765,0.0,0.0,-0.0,-0.0,1726474331.6566856,-3.115159574861333,-1.966083536154043,0.4584192380212598
83.60969543457031,0.0,0.0,-0.3700000047683716,0.18000000715255737,0.0032724919728934765,0.0,0.0,-0.0,-0.0,1726474331.6666098,-3.1152045375338493,-1.9661016597984569,0.45839299153764523
83.71006774902344,0.0,0.0,-0.2800000011920929,0.2199999988079071,0.0,0.0,0.0,-0.0,-0.0,1726474331.67659,-3.115157083070077,-1.9660901308497427,0.4581873415234615
83.71006774902344,0.0,0.0,-0.2800000011920929,0.2199999988079071,0.0,0.0,0.0,-0.0,-0.0,1726474331.6865487,-3.1151950394728654,-1.9660884111899442,0.45838283942609076
83.71006774902344,0.0,0.0,-0.2800000011920929,0.2199999988079071,0.0,0.0,0.0,-0.0,-0.0,1726474331.696583,-3.1151950343481603,-1.9660912927654912,0.4583258734156
83.71006774902344,0.0,0.0,-0.2800000011920929,0.2199999988079071,0.0,0.0,0.0,-0.0,-0.0,1726474331.7065542,-3.1151822264029807,-1.9661065198654637,0.45834982242439903
83.71006774902344,0.0,0.0,-0.2800000011920929,0.2199999988079071,0.0,0.0,0.0,-0.0,-0.0,1726474331.716532,-3.1151891815272523,-1.9660968190246317,0.4582698330582653
83.71006774902344,0.0,0.0,-0.2800000011920929,0.2199999988079071,0.0,0.0,0.0,-0.0,-0.0,1726474331.7265801,-3.1152050263760027,-1.9660956247256138,0.4580049080065173
83.71006774902344,0.0,0.0,-0.2800000011920929,0.2199999988079071,0.0,0.0,0.0,-0.0,-0.0,1726474331.7368693,-3.1151455885972825,-1.96610659761558,0.4583243592004308
83.71006774902344,0.0,0.0,-0.2800000011920929,0.2199999988079071,0.0,0.0,0.0,-0.0,-0.0,1726474331.7469912,-3.115194787700689,-1.9661023214824647,0.45823063652732565
83.71006774902344,0.0,0.0,-0.2800000011920929,0.2199999988079071,0.0,0.0,0.0,-0.0,-0.0,1726474331.7568953,-3.1151864225667905,-1.9660833590233653,0.45858364383334355
83.71006774902344,0.0,0.0,-0.2800000011920929,0.2199999988079071,0.0,0.0,0.0,-0.0,-0.0,1726474331.7673764,-3.1151952448815363,-1.966106720380926,0.4583032005502167
83.81197357177734,0.0,0.0,-0.3799999952316284,0.15000000596046448,0.001090830541215837,0.0,0.0,-0.0,-0.0,1726474331.7771046,-3.1151970053680995,-1.9661056744080825,0.4583280068432496
83.81197357177734,0.0,0.0,-0.3799999952316284,0.15000000596046448,0.001090830541215837,0.0,0.0,-0.0,-0.0,1726474331.7870224,-3.11516870148903,-1.9660940305407757,0.4585818826296091
83.81197357177734,0.0,0.0,-0.3799999952316284,0.15000000596046448,0.001090830541215837,0.0,0.0,-0.0,-0.0,1726474331.7971027,-3.115193352883477,-1.9660990447211584,0.4580259720175007
83.81197357177734,0.0,0.0,-0.3799999952316284,0.15000000596046448,0.001090830541215837,0.0,0.0,-0.0,-0.0,1726474331.807241,-3.1151935727159996,-1.96609450663572,0.45852503136665984
83.81197357177734,0.0,0.0,-0.3799999952316284,0.15000000596046448,0.001090830541215837,0.0,0.0,-0.0,-0.0,1726474331.8170226,-3.1151909112951954,-1.966104463833164,0.4582710966968303
83.81197357177734,0.0,0.0,-0.3799999952316284,0.15000000596046448,0.001090830541215837,0.0,0.0,-0.0,-0.0,1726474331.827085,-3.115174885953195,-1.9660899396174771,0.4585930901124051
83.81197357177734,0.0,0.0,-0.3799999952316284,0.15000000596046448,0.001090830541215837,0.0,0.0,-0.0,-0.0,1726474331.8367777,-3.1151720585169134,-1.9660799518019887,0.45828091222404355
83.81197357177734,0.0,0.0,-0.3799999952316284,0.15000000596046448,0.001090830541215837,0.0,0.0,-0.0,-0.0,1726474331.8469281,-3.115194171993963,-1.9661260595594434,0.4583856679004343
83.81197357177734,0.0,0.0,-0.3799999952316284,0.15000000596046448,0.001090830541215837,0.0,0.0,-0.0,-0.0,1726474331.8570871,-3.115184371376461,-1.9660935860782145,0.4584419228204528
83.81197357177734,0.0,0.0,-0.3799999952316284,0.15000000596046448,0.001090830541215837,0.0,0.0,-0.0,-0.0,1726474331.8668423,-3.115194880312493,-1.9661159636422212,0.45846236887556446
83.9090576171875,0.0,0.0,-0.33000001311302185,0.2199999988079071,0.002181661082431674,0.0,0.0,-0.0,-0.0,1726474331.8771605,-3.115197051348843,-1.9660980427825783,0.45822057467756777
83.9090576171875,0.0,0.0,-0.33000001311302185,0.2199999988079071,0.002181661082431674,0.0,0.0,-0.0,-0.0,1726474331.8872893,-3.1151733820547354,-1.9661096328326884,0.4583146700041541
83.9090576171875,0.0,0.0,-0.33000001311302185,0.2199999988079071,0.002181661082431674,0.0,0.0,-0.0,-0.0,1726474331.8972955,-3.11517581711044,-1.966089593195805,0.45848940050639814
83.9090576171875,0.0,0.0,-0.33000001311302185,0.2199999988079071,0.002181661082431674,0.0,0.0,-0.0,-0.0,1726474331.9072845,-3.1152185722966568,-1.9661118072033807,0.4583809528568642
83.9090576171875,0.0,0.0,-0.33000001311302185,0.2199999988079071,0.002181661082431674,0.0,0.0,-0.0,-0.0,1726474331.916985,-3.1151936659404567,-1.9661105740425482,0.45853684046103693
83.9090576171875,0.0,0.0,-0.33000001311302185,0.2199999988079071,0.002181661082431674,0.0,0.0,-0.0,-0.0,1726474331.9269001,-3.115188335934286,-1.9660703809943256,0.45825829232424636
83.9090576171875,0.0,0.0,-0.33000001311302185,0.2199999988079071,0.002181661082431674,0.0,0.0,-0.0,-0.0,1726474331.9370303,-3.1152001091566777,-1.9660974098835988,0.45840658291273256
83.9090576171875,0.0,0.0,-0.33000001311302185,0.2199999988079071,0.002181661082431674,0.0,0.0,-0.0,-0.0,1726474331.947039,-3.1151877160757326,-1.9660966875854409,0.4579893102573578
83.9090576171875,0.0,0.0,-0.33000001311302185,0.2199999988079071,0.002181661082431674,0.0,0.0,-0.0,-0.0,1726474331.9574184,-3.1151938475335514,-1.9660925625846755,0.4585070428389414
83.9090576171875,0.0,0.0,-0.33000001311302185,0.2199999988079071,0.002181661082431674,0.0,0.0,-0.0,-0.0,1726474331.9668596,-3.115218747282475,-1.9661017205101488,0.45820613355158346
84.01072692871094,0.0,0.0,-0.30000001192092896,0.2199999988079071,-0.002181661082431674,0.0,0.0,-0.0,-0.0,1726474331.9769645,-3.1151853584012827,-1.9661037703484519,0.45826858500439166
84.01072692871094,0.0,0.0,-0.30000001192092896,0.2199999988079071,-0.002181661082431674,0.0,0.0,-0.0,-0.0,1726474331.9870152,-3.1151860744253828,-1.9661040168736394,0.4583418936800061
84.01072692871094,0.0,0.0,-0.30000001192092896,0.2199999988079071,-0.002181661082431674,0.0,0.0,-0.0,-0.0,1726474331.996872,-3.1151725057790745,-1.9660989004611478,0.45838176347981546
84.01072692871094,0.0,0.0,-0.30000001192092896,0.2199999988079071,-0.002181661082431674,0.0,0.0,-0.0,-0.0,1726474332.0067348,-3.115183725550568,-1.9661060511780466,0.4585227861741713
84.01072692871094,0.0,0.0,-0.30000001192092896,0.2199999988079071,-0.002181661082431674,0.0,0.0,-0.0,-0.0,1726474332.0171046,-3.1151861377435006,-1.966103845184495,0.45852269996009853
84.01072692871094,0.0,0.0,-0.30000001192092896,0.2199999988079071,-0.002181661082431674,0.0,0.0,-0.0,-0.0,1726474332.027209,-3.115179985222939,-1.9660852273303593,0.4582878627214628
84.01072692871094,0.0,0.0,-0.30000001192092896,0.2199999988079071,-0.002181661082431674,0.0,0.0,-0.0,-0.0,1726474332.0372074,-3.115155670489551,-1.9660965141750746,0.45832432478835017
84.01072692871094,0.0,0.0,-0.30000001192092896,0.2199999988079071,-0.002181661082431674,0.0,0.0,-0.0,-0.0,1726474332.0470881,-3.1151994988076357,-1.9661056005062751,0.4585864306003732
84.01072692871094,0.0,0.0,-0.30000001192092896,0.2199999988079071,-0.002181661082431674,0.0,0.0,-0.0,-0.0,1726474332.0571687,-3.115196911101036,-1.9661068952338518,0.4586209530926537
84.01072692871094,0.0,0.0,-0.30000001192092896,0.2199999988079071,-0.002181661082431674,0.0,0.0,-0.0,-0.0,1726474332.066985,-3.11519991889986,-1.9661205717973622,0.45827918629414605
84.01072692871094,0.0,0.0,-0.30000001192092896,0.2199999988079071,-0.002181661082431674,0.0,0.0,-0.0,-0.0,1726474332.077316,-3.11520813933631,-1.9661037224797644,0.45848917472703254
84.11447143554688,0.0,0.0,-0.3799999952316284,0.1599999964237213,-0.004363322164863348,0.0,0.0,-0.0,-0.0,1726474332.0871415,-3.115163011905924,-1.966076282500581,0.45807442360598416
84.11447143554688,0.0,0.0,-0.3799999952316284,0.1599999964237213,-0.004363322164863348,0.0,0.0,-0.0,-0.0,1726474332.096849,-3.1151870069323273,-1.9661150371010823,0.45823456979046023
84.11447143554688,0.0,0.0,-0.3799999952316284,0.1599999964237213,-0.004363322164863348,0.0,0.0,-0.0,-0.0,1726474332.1072967,-3.115182951421545,-1.9661304925090826,0.45853135236218395
84.11447143554688,0.0,0.0,-0.3799999952316284,0.1599999964237213,-0.004363322164863348,0.0,0.0,-0.0,-0.0,1726474332.1168664,-3.1151968545342075,-1.9660977009337701,0.4583164795128749
84.11447143554688,0.0,0.0,-0.3799999952316284,0.1599999964237213,-0.004363322164863348,0.0,0.0,-0.0,-0.0,1726474332.127247,-3.1151760949568894,-1.9660970983115142,0.4584972576505868
84.11447143554688,0.0,0.0,-0.3799999952316284,0.1599999964237213,-0.004363322164863348,0.0,0.0,-0.0,-0.0,1726474332.1371074,-3.115204508056981,-1.9661262728211184,0.4585341221318058
84.11447143554688,0.0,0.0,-0.3799999952316284,0.1599999964237213,-0.004363322164863348,0.0,0.0,-0.0,-0.0,1726474332.1468468,-3.1152018742978296,-1.9661123741006208,0.45826263134319645
84.11447143554688,0.0,0.0,-0.3799999952316284,0.1599999964237213,-0.004363322164863348,0.0,0.0,-0.0,-0.0,1726474332.1568723,-3.1151866829246426,-1.9661099905044555,0.45844189175513156
84.11447143554688,0.0,0.0,-0.3799999952316284,0.1599999964237213,-0.004363322164863348,0.0,0.0,-0.0,-0.0,1726474332.1669288,-3.1151657159116097,-1.9661008059766498,0.4582306343658395
84.21094512939453,0.0,0.0,-0.2800000011920929,0.23000000417232513,0.0,0.0,0.0,-0.0,-0.0,1726474332.1773562,-3.1151726719702104,-1.9661162499529565,0.45852289010249137
84.21094512939453,0.0,0.0,-0.2800000011920929,0.23000000417232513,0.0,0.0,0.0,-0.0,-0.0,1726474332.1871386,-3.115193027741697,-1.9661212664799197,0.4582958494986033
84.21094512939453,0.0,0.0,-0.2800000011920929,0.23000000417232513,0.0,0.0,0.0,-0.0,-0.0,1726474332.1970565,-3.115181417572864,-1.9661205073771606,0.4585929145774954
84.21094512939453,0.0,0.0,-0.2800000011920929,0.23000000417232513,0.0,0.0,0.0,-0.0,-0.0,1726474332.2071373,-3.1152128488084183,-1.966112541796312,0.45826226273670395
84.21094512939453,0.0,0.0,-0.2800000011920929,0.23000000417232513,0.0,0.0,0.0,-0.0,-0.0,1726474332.2171774,-3.1151811006590924,-1.9661001645317475,0.45813438610788637
