elapsed time sensors,current,voltage,acc x (IMU),acc y (IMU),W (IMU),vel encoder,safety_value,throttle,steering,vicon time,vicon x,vicon y,vicon yaw
0.0,0.0,0.0,0.0,0.0,0.0,0.0,0.0,0.0,0.0,1726473661.9480767,-0.005428184800197262,-1.564033566330257,0.512692456394563
0.0,0.0,0.0,0.0,0.0,0.0,0.0,0.0,0.0,0.0,1726473661.9579732,-0.0054193847365439736,-1.5640422035518757,0.5126938978039178
0.0,0.0,0.0,0.0,0.0,0.0,0.0,0.0,0.0,0.0,1726473661.968052,-0.005417842509029683,-1.5640374459686135,0.5128352292471644
50.78009796142578,0.0,0.0,-0.3700000047683716,0.2800000011920929,-0.002181661082431674,0.0,0.0,-0.0,-0.0,1726473661.9779506,-0.005417825026552992,-1.5640328216341857,0.5127539626349357
50.78009796142578,0.0,0.0,-0.3700000047683716,0.2800000011920929,-0.002181661082431674,0.0,0.0,-0.0,-0.0,1726473661.9874794,-0.005417853866843727,-1.564039627140463,0.5128378946160954
50.78009796142578,0.0,0.0,-0.3700000047683716,0.2800000011920929,-0.002181661082431674,0.0,0.0,-0.0,-0.0,1726473661.997611,-0.005430340345648609,-1.5640298682321978,0.5129247205058574
50.78009796142578,0.0,0.0,-0.3700000047683716,0.2800000011920929,-0.002181661082431674,0.0,0.0,-0.0,-0.0,1726473662.0081387,-0.00542881130731485,-1.5640295472082313,0.5127720583882851
50.78009796142578,0.0,0.0,-0.3700000047683716,0.2800000011920929,-0.002181661082431674,0.0,0.0,-0.0,-0.0,1726473662.0180645,-0.005422083143783417,-1.564024641174318,0.512787608611536
50.78009796142578,0.0,0.0,-0.3700000047683716,0.2800000011920929,-0.002181661082431674,0.0,0.0,-0.0,-0.0,1726473662.0284224,-0.00541456316528515,-1.5640332520236149,0.5127374412744127
50.78009796142578,0.0,0.0,-0.3700000047683716,0.2800000011920929,-0.002181661082431674,0.0,0.0,-0.0,-0.0,1726473662.0381622,-0.005408374993972856,-1.5640360008419711,0.5127192423470994
50.78009796142578,0.0,0.0,-0.3700000047683716,0.2800000011920929,-0.002181661082431674,0.0,0.0,-0.0,-0.0,1726473662.048301,-0.005427807743877182,-1.5640409236853061,0.5128175230013484
50.78009796142578,0.0,0.0,-0.3700000047683716,0.2800000011920929,-0.002181661082431674,0.0,0.0,-0.0,-0.0,1726473662.0585833,-0.005432453113781888,-1.564038510802603,0.5127846729691234
50.78009796142578,0.0,0.0,-0.3700000047683716,0.2800000011920929,-0.002181661082431674,0.0,0.0,-0.0,-0.0,1726473662.0683095,-0.005420903640791701,-1.564030558516545,0.51260534938355
50.78009796142578,0.0,0.0,-0.3700000047683716,0.2800000011920929,-0.002181661082431674,0.0,0.0,-0.0,-0.0,1726473662.078352,-0.00541936034679487,-1.5640344570631741,0.5128406620610838
50.88273239135742,0.0,0.0,-0.3400000035762787,0.27000001072883606,-0.001090830541215837,0.0,0.0,-0.0,-0.0,1726473662.0883722,-0.005404869082772863,-1.5640319971670635,0.5128597525546543
50.88273239135742,0.0,0.0,-0.3400000035762787,0.27000001072883606,-0.001090830541215837,0.0,0.0,-0.0,-0.0,1726473662.0983975,-0.005419400310696588,-1.5640334143197014,0.5127913832265995
50.88273239135742,0.0,0.0,-0.3400000035762787,0.27000001072883606,-0.001090830541215837,0.0,0.0,-0.0,-0.0,1726473662.108396,-0.005424754806506707,-1.56404933110306,0.5127261824505112
50.88273239135742,0.0,0.0,-0.3400000035762787,0.27000001072883606,-0.001090830541215837,0.0,0.0,-0.0,-0.0,1726473662.118332,-0.005437468861596344,-1.5640328117049753,0.512762657393324
50.88273239135742,0.0,0.0,-0.3400000035762787,0.27000001072883606,-0.001090830541215837,0.0,0.0,-0.0,-0.0,1726473662.1287115,-0.005424932765645226,-1.5640381283755969,0.5127751225910044
50.88273239135742,0.0,0.0,-0.3400000035762787,0.27000001072883606,-0.001090830541215837,0.0,0.0,-0.0,-0.0,1726473662.1384163,-0.005419104557145329,-1.5640317017338208,0.5127586486957301
50.88273239135742,0.0,0.0,-0.3400000035762787,0.27000001072883606,-0.001090830541215837,0.0,0.0,-0.0,-0.0,1726473662.1483226,-0.005411910156192306,-1.564033333576622,0.5125680293896977
50.88273239135742,0.0,0.0,-0.3400000035762787,0.27000001072883606,-0.001090830541215837,0.0,0.0,-0.0,-0.0,1726473662.158187,-0.005406387890060441,-1.5640349660938935,0.5127208960446077
50.88273239135742,0.0,0.0,-0.3400000035762787,0.27000001072883606,-0.001090830541215837,0.0,0.0,-0.0,-0.0,1726473662.168149,-0.005417684296253812,-1.5640334093094028,0.5127881347593888
50.981529235839844,0.0,0.0,-0.44999998807907104,0.23999999463558197,0.0,0.0,0.0,-0.0,-0.0,1726473662.1785035,-0.005432547187018397,-1.5640411021859169,0.5127632376706484
50.981529235839844,0.0,0.0,-0.44999998807907104,0.23999999463558197,0.0,0.0,0.0,-0.0,-0.0,1726473662.1884546,-0.005426636657576146,-1.564030454618434,0.5128335231883584
50.981529235839844,0.0,0.0,-0.44999998807907104,0.23999999463558197,0.0,0.0,0.0,-0.0,-0.0,1726473662.1985414,-0.0054211011313367585,-1.5640373731349757,0.5127599226719495
50.981529235839844,0.0,0.0,-0.44999998807907104,0.23999999463558197,0.0,0.0,0.0,-0.0,-0.0,1726473662.208273,-0.005405027452534301,-1.5640389427797345,0.5127985996163618
50.981529235839844,0.0,0.0,-0.44999998807907104,0.23999999463558197,0.0,0.0,0.0,-0.0,-0.0,1726473662.2181776,-0.005404242826958713,-1.5640397228611076,0.512750352890806
50.981529235839844,0.0,0.0,-0.44999998807907104,0.23999999463558197,0.0,0.0,0.0,-0.0,-0.0,1726473662.2282417,-0.005406570114903858,-1.5640466491850549,0.5127696983658327
50.981529235839844,0.0,0.0,-0.44999998807907104,0.23999999463558197,0.0,0.0,0.0,-0.0,-0.0,1726473662.238282,-0.005409757555547166,-1.5640361635654,0.5127648012462164
50.981529235839844,0.0,0.0,-0.44999998807907104,0.23999999463558197,0.0,0.0,0.0,-0.0,-0.0,1726473662.248732,-0.005425054634338544,-1.5640301220236679,0.5127719603456808
50.981529235839844,0.0,0.0,-0.44999998807907104,0.23999999463558197,0.0,0.0,0.0,-0.0,-0.0,1726473662.2582586,-0.005429523074991565,-1.564030740973148,0.512816123994238
50.981529235839844,0.0,0.0,-0.44999998807907104,0.23999999463558197,0.0,0.0,0.0,-0.0,-0.0,1726473662.2684336,-0.005420885081851177,-1.5640315405855671,0.5127781687651246
51.0816535949707,0.0,0.0,-0.3799999952316284,0.27000001072883606,0.0,0.0,0.0,-0.0,-0.0,1726473662.2781835,-0.005413879592178758,-1.564030575964575,0.5128139134941199
51.0816535949707,0.0,0.0,-0.3799999952316284,0.27000001072883606,0.0,0.0,0.0,-0.0,-0.0,1726473662.2883332,-0.005417900251002402,-1.5640459324623694,0.5127382028026165
51.0816535949707,0.0,0.0,-0.3799999952316284,0.27000001072883606,0.0,0.0,0.0,-0.0,-0.0,1726473662.2979786,-0.005408940254222205,-1.5640378629327294,0.5129066167872602
51.0816535949707,0.0,0.0,-0.3799999952316284,0.27000001072883606,0.0,0.0,0.0,-0.0,-0.0,1726473662.307544,-0.005409753235657273,-1.5640440517648746,0.5128846883159834
51.0816535949707,0.0,0.0,-0.3799999952316284,0.27000001072883606,0.0,0.0,0.0,-0.0,-0.0,1726473662.317461,-0.005418061944584797,-1.5640385774443595,0.5127720773371867
51.0816535949707,0.0,0.0,-0.3799999952316284,0.27000001072883606,0.0,0.0,0.0,-0.0,-0.0,1726473662.3279133,-0.005417203249539437,-1.5640303779028857,0.5127345357959966
51.0816535949707,0.0,0.0,-0.3799999952316284,0.27000001072883606,0.0,0.0,0.0,-0.0,-0.0,1726473662.3379622,-0.005417943389403398,-1.5640355180792802,0.5127727297014955
51.0816535949707,0.0,0.0,-0.3799999952316284,0.27000001072883606,0.0,0.0,0.0,-0.0,-0.0,1726473662.3483343,-0.005431963452375446,-1.5640324449412901,0.5128484104412436
51.0816535949707,0.0,0.0,-0.3799999952316284,0.27000001072883606,0.0,0.0,0.0,-0.0,-0.0,1726473662.3580687,-0.0054153821751223175,-1.5640389546075206,0.5127529072364096
51.0816535949707,0.0,0.0,-0.3799999952316284,0.27000001072883606,0.0,0.0,0.0,-0.0,-0.0,1726473662.3678987,-0.00543209312853566,-1.564025875800512,0.5127025424795181
51.1815071105957,0.0,0.0,-0.38999998569488525,0.27000001072883606,-0.001090830541215837,0.0,0.0,-0.0,-0.0,1726473662.377987,-0.00543117748981135,-1.564034029733812,0.5127705326297672
51.1815071105957,0.0,0.0,-0.38999998569488525,0.27000001072883606,-0.001090830541215837,0.0,0.0,-0.0,-0.0,1726473662.3887212,-0.0054159329647114705,-1.5640336591153843,0.5127638648720606
51.1815071105957,0.0,0.0,-0.38999998569488525,0.27000001072883606,-0.001090830541215837,0.0,0.0,-0.0,-0.0,1726473662.3985426,-0.00541722751292854,-1.5640416781997364,0.5128509008792249
51.1815071105957,0.0,0.0,-0.38999998569488525,0.27000001072883606,-0.001090830541215837,0.0,0.0,-0.0,-0.0,1726473662.4082742,-0.0054112572229853785,-1.5640337989925313,0.5127585311203059
51.1815071105957,0.0,0.0,-0.38999998569488525,0.27000001072883606,-0.001090830541215837,0.0,0.0,-0.0,-0.0,1726473662.4183125,-0.005408438200825417,-1.5640374277009454,0.5129219374010106
51.1815071105957,0.0,0.0,-0.38999998569488525,0.27000001072883606,-0.001090830541215837,0.0,0.0,-0.0,-0.0,1726473662.4283233,-0.005421780628690118,-1.564020979635274,0.5126680507719446
51.1815071105957,0.0,0.0,-0.38999998569488525,0.27000001072883606,-0.001090830541215837,0.0,0.0,-0.0,-0.0,1726473662.4383256,-0.005426600116257194,-1.5640248314485399,0.5126584046357222
51.1815071105957,0.0,0.0,-0.38999998569488525,0.27000001072883606,-0.001090830541215837,0.0,0.0,-0.0,-0.0,1726473662.448511,-0.005423718818780364,-1.5640251725900332,0.512809016405874
51.1815071105957,0.0,0.0,-0.38999998569488525,0.27000001072883606,-0.001090830541215837,0.0,0.0,-0.0,-0.0,1726473662.4584625,-0.005416500251451477,-1.564042930716074,0.5127317772268677
51.1815071105957,0.0,0.0,-0.38999998569488525,0.27000001072883606,-0.001090830541215837,0.0,0.0,-0.0,-0.0,1726473662.4684918,-0.00541090416348991,-1.564031545578693,0.5126436990454779
51.278564453125,0.0,0.0,-0.4300000071525574,0.25999999046325684,0.002181661082431674,0.0,0.0,-0.0,-0.0,1726473662.4784045,-0.005417936361967056,-1.5640307952697392,0.5127923822966102
51.278564453125,0.0,0.0,-0.4300000071525574,0.25999999046325684,0.002181661082431674,0.0,0.0,-0.0,-0.0,1726473662.4881892,-0.005411917516672172,-1.5640285667033877,0.5128083361389627
51.278564453125,0.0,0.0,-0.4300000071525574,0.25999999046325684,0.002181661082431674,0.0,0.0,-0.0,-0.0,1726473662.498188,-0.005429248198381639,-1.5640174788379322,0.5128128431191551
51.278564453125,0.0,0.0,-0.4300000071525574,0.25999999046325684,0.002181661082431674,0.0,0.0,-0.0,-0.0,1726473662.507449,-0.005428686633244049,-1.564022295444152,0.5126901001397955
51.278564453125,0.0,0.0,-0.4300000071525574,0.25999999046325684,0.002181661082431674,0.0,0.0,-0.0,-0.0,1726473662.5177228,-0.005430517196167471,-1.5640286774300987,0.5129021866486496
51.278564453125,0.0,0.0,-0.4300000071525574,0.25999999046325684,0.002181661082431674,0.0,0.0,-0.0,-0.0,1726473662.5275204,-0.005428116058754115,-1.5640236479759908,0.5127481885787462
51.278564453125,0.0,0.0,-0.4300000071525574,0.25999999046325684,0.002181661082431674,0.0,0.0,-0.0,-0.0,1726473662.5375838,-0.005428239910596596,-1.564027179969988,0.5128975987435064
51.278564453125,0.0,0.0,-0.4300000071525574,0.25999999046325684,0.002181661082431674,0.0,0.0,-0.0,-0.0,1726473662.5475912,-0.005410986957948038,-1.564032430926993,0.5129511045090137
51.278564453125,0.0,0.0,-0.4300000071525574,0.25999999046325684,0.002181661082431674,0.0,0.0,-0.0,-0.0,1726473662.5583186,-0.005415270308697879,-1.5640198951451738,0.5127790682950931
51.278564453125,0.0,0.0,-0.4300000071525574,0.25999999046325684,0.002181661082431674,0.0,0.0,-0.0,-0.0,1726473662.5682845,-0.005432557670427757,-1.56402875409408,0.5128906262919063
51.37883377075195,0.0,0.0,-0.44999998807907104,0.25,-0.002181661082431674,0.0,0.0,-0.0,-0.0,1726473662.5779176,-0.0054434315036207504,-1.564031623536599,0.5126525648365362
51.37883377075195,0.0,0.0,-0.44999998807907104,0.25,-0.002181661082431674,0.0,0.0,-0.0,-0.0,1726473662.588019,-0.0054359257438304056,-1.5640258322538905,0.5128867675897173
51.37883377075195,0.0,0.0,-0.44999998807907104,0.25,-0.002181661082431674,0.0,0.0,-0.0,-0.0,1726473662.5974047,-0.005437922324023021,-1.5640358185248355,0.5127415567906377
51.37883377075195,0.0,0.0,-0.44999998807907104,0.25,-0.002181661082431674,0.0,0.0,-0.0,-0.0,1726473662.6081436,-0.005434373052422473,-1.564020197723334,0.5128863964520363
51.37883377075195,0.0,0.0,-0.44999998807907104,0.25,-0.002181661082431674,0.0,0.0,-0.0,-0.0,1726473662.6180198,-0.005430146901083506,-1.5640171427642906,0.5128886585634467
51.37883377075195,0.0,0.0,-0.44999998807907104,0.25,-0.002181661082431674,0.0,0.0,-0.0,-0.0,1726473662.6280866,-0.005435306914747785,-1.5640289355730177,0.512745377514434
51.37883377075195,0.0,0.0,-0.44999998807907104,0.25,-0.002181661082431674,0.0,0.0,-0.0,-0.0,1726473662.6381702,-0.005434949553832186,-1.5640229045532492,0.5127872348147422
51.37883377075195,0.0,0.0,-0.44999998807907104,0.25,-0.002181661082431674,0.0,0.0,-0.0,-0.0,1726473662.6476579,-0.005419363504532383,-1.5640301608023934,0.5129601056273987
51.37883377075195,0.0,0.0,-0.44999998807907104,0.25,-0.002181661082431674,0.0,0.0,-0.0,-0.0,1726473662.6578698,-0.005434465048227147,-1.564036897866976,0.5126408740518806
51.37883377075195,0.0,0.0,-0.44999998807907104,0.25,-0.002181661082431674,0.0,0.0,-0.0,-0.0,1726473662.6679952,-0.005429337942512856,-1.5640405816188148,0.5128267613117511
51.48104476928711,0.0,0.0,-0.38999998569488525,0.25999999046325684,0.0,0.0,0.0,-0.0,-0.0,1726473662.6779103,-0.00543030553890464,-1.5640389812350424,0.5127252921969373
51.48104476928711,0.0,0.0,-0.38999998569488525,0.25999999046325684,0.0,0.0,0.0,-0.0,-0.0,1726473662.688047,-0.0054383549409395,-1.5640270630805564,0.5129222317731608
51.48104476928711,0.0,0.0,-0.38999998569488525,0.25999999046325684,0.0,0.0,0.0,-0.0,-0.0,1726473662.6979659,-0.005441651779321616,-1.5640196145981788,0.5128739938402989
51.48104476928711,0.0,0.0,-0.38999998569488525,0.25999999046325684,0.0,0.0,0.0,-0.0,-0.0,1726473662.7080848,-0.005430886021492877,-1.5640238785190406,0.5129212921276415
51.48104476928711,0.0,0.0,-0.38999998569488525,0.25999999046325684,0.0,0.0,0.0,-0.0,-0.0,1726473662.7180762,-0.005445970596012952,-1.564015453572043,0.5126920562844918
51.48104476928711,0.0,0.0,-0.38999998569488525,0.25999999046325684,0.0,0.0,0.0,-0.0,-0.0,1726473662.7280242,-0.005439833957368842,-1.5640409080319664,0.5128329974484459
51.48104476928711,0.0,0.0,-0.38999998569488525,0.25999999046325684,0.0,0.0,0.0,-0.0,-0.0,1726473662.7380912,-0.005436207049751185,-1.5640434248048645,0.5126918835082921
51.48104476928711,0.0,0.0,-0.38999998569488525,0.25999999046325684,0.0,0.0,0.0,-0.0,-0.0,1726473662.7482932,-0.005415356547419561,-1.5640347939258736,0.5128912719721102
51.48104476928711,0.0,0.0,-0.38999998569488525,0.25999999046325684,0.0,0.0,0.0,-0.0,-0.0,1726473662.7580512,-0.005416988007251555,-1.5640320279792048,0.5128967351010929
51.48104476928711,0.0,0.0,-0.38999998569488525,0.25999999046325684,0.0,0.0,0.0,-0.0,-0.0,1726473662.7680259,-0.0054187605520139865,-1.5640285212858214,0.5127288413401757
51.578060150146484,0.0,0.0,-0.3700000047683716,0.2800000011920929,0.001090830541215837,0.0,0.0,-0.0,-0.0,1726473662.7781267,-0.005419849524900875,-1.5640139058544753,0.5129526769617009
51.578060150146484,0.0,0.0,-0.3700000047683716,0.2800000011920929,0.001090830541215837,0.0,0.0,-0.0,-0.0,1726473662.7881854,-0.005429822699878309,-1.5640254730699392,0.512813556327289
51.578060150146484,0.0,0.0,-0.3700000047683716,0.2800000011920929,0.001090830541215837,0.0,0.0,-0.0,-0.0,1726473662.7981083,-0.005436556660443803,-1.5640311904725803,0.5126407464277127
51.578060150146484,0.0,0.0,-0.3700000047683716,0.2800000011920929,0.001090830541215837,0.0,0.0,-0.0,-0.0,1726473662.8074684,-0.005432500905657722,-1.5640492574464204,0.5127169606358373
51.578060150146484,0.0,0.0,-0.3700000047683716,0.2800000011920929,0.001090830541215837,0.0,0.0,-0.0,-0.0,1726473662.8174496,-0.005412217416147978,-1.5640592387205747,0.512574297051346
51.578060150146484,0.0,0.0,-0.3700000047683716,0.2800000011920929,0.001090830541215837,0.0,0.0,-0.0,-0.0,1726473662.828023,-0.005400727369396154,-1.564051558109574,0.5127773591002738
51.578060150146484,0.0,0.0,-0.3700000047683716,0.2800000011920929,0.001090830541215837,0.0,0.0,-0.0,-0.0,1726473662.8387432,-0.005398637230087075,-1.5640187492363025,0.5128723819646818
51.578060150146484,0.0,0.0,-0.3700000047683716,0.2800000011920929,0.001090830541215837,0.0,0.0,-0.0,-0.0,1726473662.8485777,-0.0054034143002414815,-1.5640109518712706,0.5128686337371722
51.578060150146484,0.0,0.0,-0.3700000047683716,0.2800000011920929,0.001090830541215837,0.0,0.0,-0.0,-0.0,1726473662.8582227,-0.0054252666405924495,-1.5640206319843264,0.5128533192428013
51.578060150146484,0.0,0.0,-0.3700000047683716,0.2800000011920929,0.001090830541215837,0.0,0.0,-0.0,-0.0,1726473662.868149,-0.0054360855108157415,-1.5640231965044773,0.5128391386774102
51.680747985839844,0.0,0.0,-0.44999998807907104,0.23999999463558197,0.0,0.0,0.0,-0.0,-0.0,1726473662.8783958,-0.00544016772494795,-1.56404032137382,0.5127354454942016
51.680747985839844,0.0,0.0,-0.44999998807907104,0.23999999463558197,0.0,0.0,0.0,-0.0,-0.0,1726473662.888341,-0.0054106741501978185,-1.5640492189152828,0.5125731745630757
51.680747985839844,0.0,0.0,-0.44999998807907104,0.23999999463558197,0.0,0.0,0.0,-0.0,-0.0,1726473662.8986773,-0.005386615378154529,-1.5640529615903498,0.5127540528938294
51.680747985839844,0.0,0.0,-0.44999998807907104,0.23999999463558197,0.0,0.0,0.0,-0.0,-0.0,1726473662.9083128,-0.005385490668828282,-1.5640337952535384,0.5127639104114117
51.680747985839844,0.0,0.0,-0.44999998807907104,0.23999999463558197,0.0,0.0,0.0,-0.0,-0.0,1726473662.9175699,-0.005399970474443702,-1.5640156343983294,0.5128958719061197
51.680747985839844,0.0,0.0,-0.44999998807907104,0.23999999463558197,0.0,0.0,0.0,-0.0,-0.0,1726473662.9274483,-0.005427469135290728,-1.5640215245793714,0.5128920698761799
51.680747985839844,0.0,0.0,-0.44999998807907104,0.23999999463558197,0.0,0.0,0.0,-0.0,-0.0,1726473662.9375346,-0.005432241366087176,-1.5640143700512195,0.5128060606292675
51.680747985839844,0.0,0.0,-0.44999998807907104,0.23999999463558197,0.0,0.0,0.0,-0.0,-0.0,1726473662.947645,-0.005433894779872034,-1.5640219205613115,0.5127480481946364
51.680747985839844,0.0,0.0,-0.44999998807907104,0.23999999463558197,0.0,0.0,0.0,-0.0,-0.0,1726473662.9576366,-0.00541923833306992,-1.5640418462864343,0.5128625592210381
51.680747985839844,0.0,0.0,-0.44999998807907104,0.23999999463558197,0.0,0.0,0.0,-0.0,-0.0,1726473662.9677439,-0.005400999729638351,-1.564059338303732,0.5126713556243077
51.680747985839844,0.0,0.0,-0.44999998807907104,0.23999999463558197,0.0,0.0,0.0,-0.0,-0.0,1726473662.977467,-0.005390600527278488,-1.5640563773644403,0.5129291387614549
51.78168487548828,0.0,0.0,-0.3700000047683716,0.27000001072883606,0.002181661082431674,0.0,0.0,-0.0,-0.0,1726473662.9874783,-0.005394162273834512,-1.5640449252685442,0.5129546384876772
51.78168487548828,0.0,0.0,-0.3700000047683716,0.27000001072883606,0.002181661082431674,0.0,0.0,-0.0,-0.0,1726473662.997614,-0.005413134010268144,-1.5640217758977073,0.5129803657729486
51.78168487548828,0.0,0.0,-0.3700000047683716,0.27000001072883606,0.002181661082431674,0.0,0.0,-0.0,-0.0,1726473663.0073462,-0.005427912520256671,-1.5640246144124832,0.5127533954896253
51.78168487548828,0.0,0.0,-0.3700000047683716,0.27000001072883606,0.002181661082431674,0.0,0.0,-0.0,-0.0,1726473663.0179908,-0.005442192189337603,-1.564020060080171,0.512805912004652
51.78168487548828,0.0,0.0,-0.3700000047683716,0.27000001072883606,0.002181661082431674,0.0,0.0,-0.0,-0.0,1726473663.0274181,-0.005431747898590812,-1.5640298437158762,0.5128308808925974
51.78168487548828,0.0,0.0,-0.3700000047683716,0.27000001072883606,0.002181661082431674,0.0,0.0,-0.0,-0.0,1726473663.0378988,-0.005407749941593223,-1.5640573932307842,0.5128394755706601
51.78168487548828,0.0,0.0,-0.3700000047683716,0.27000001072883606,0.002181661082431674,0.0,0.0,-0.0,-0.0,1726473663.0479903,-0.005401164339352553,-1.5640523392168566,0.5127683327755589
51.78168487548828,0.0,0.0,-0.3700000047683716,0.27000001072883606,0.002181661082431674,0.0,0.0,-0.0,-0.0,1726473663.0579717,-0.0054045460048831855,-1.5640409606638415,0.5126207768838378
51.78168487548828,0.0,0.0,-0.3700000047683716,0.27000001072883606,0.002181661082431674,0.0,0.0,-0.0,-0.0,1726473663.0682385,-0.005422291103384781,-1.5640444319338311,0.5128275045188933
51.87818908691406,0.0,0.0,-0.4399999976158142,0.23999999463558197,0.0,0.0,0.0,-0.0,-0.0,1726473663.0780392,-0.005431967872776549,-1.5640325662520838,0.5129058186757043
51.87818908691406,0.0,0.0,-0.4399999976158142,0.23999999463558197,0.0,0.0,0.0,-0.0,-0.0,1726473663.0881858,-0.005451762042474391,-1.5640244136716044,0.5128117385511723
51.87818908691406,0.0,0.0,-0.4399999976158142,0.23999999463558197,0.0,0.0,0.0,-0.0,-0.0,1726473663.0980482,-0.005445567414011278,-1.5640267738884672,0.5128814087681804
51.87818908691406,0.0,0.0,-0.4399999976158142,0.23999999463558197,0.0,0.0,0.0,-0.0,-0.0,1726473663.1080842,-0.005415740251767504,-1.5640337250469183,0.5126830628632357
51.87818908691406,0.0,0.0,-0.4399999976158142,0.23999999463558197,0.0,0.0,0.0,-0.0,-0.0,1726473663.1181686,-0.0053977023820910965,-1.5640422727386019,0.5128098964489346
51.87818908691406,0.0,0.0,-0.4399999976158142,0.23999999463558197,0.0,0.0,0.0,-0.0,-0.0,1726473663.1280253,-0.005406237530754321,-1.5640395224611385,0.5128030867030895
51.87818908691406,0.0,0.0,-0.4399999976158142,0.23999999463558197,0.0,0.0,0.0,-0.0,-0.0,1726473663.1381228,-0.005413483418956121,-1.5640371978493808,0.5128018949225257
51.87818908691406,0.0,0.0,-0.4399999976158142,0.23999999463558197,0.0,0.0,0.0,-0.0,-0.0,1726473663.1480505,-0.005443559739669319,-1.5640182044275266,0.5127104642359211
51.87818908691406,0.0,0.0,-0.4399999976158142,0.23999999463558197,0.0,0.0,0.0,-0.0,-0.0,1726473663.1580064,-0.005455484643774893,-1.564014604361635,0.5128281219962992
51.87818908691406,0.0,0.0,-0.4399999976158142,0.23999999463558197,0.0,0.0,0.0,-0.0,-0.0,1726473663.168129,-0.005443384468409211,-1.564011166423762,0.5127506690888542
51.978633880615234,0.0,0.0,-0.3700000047683716,0.28999999165534973,0.0,0.0,0.0,-0.0,-0.0,1726473663.1781192,-0.005417347874157988,-1.5640309650364972,0.5129213343391775
51.978633880615234,0.0,0.0,-0.3700000047683716,0.28999999165534973,0.0,0.0,0.0,-0.0,-0.0,1726473663.1881232,-0.00539451109839635,-1.5640389036512146,0.5128149641631251
51.978633880615234,0.0,0.0,-0.3700000047683716,0.28999999165534973,0.0,0.0,0.0,-0.0,-0.0,1726473663.1980832,-0.005380176908933515,-1.5640419811859403,0.5126759502760152
51.978633880615234,0.0,0.0,-0.3700000047683716,0.28999999165534973,0.0,0.0,0.0,-0.0,-0.0,1726473663.2080142,-0.005416065191697773,-1.564037132794347,0.5125267822489806
51.978633880615234,0.0,0.0,-0.3700000047683716,0.28999999165534973,0.0,0.0,0.0,-0.0,-0.0,1726473663.218409,-0.005430460262282878,-1.5640319505223916,0.5128493140602433
51.978633880615234,0.0,0.0,-0.3700000047683716,0.28999999165534973,0.0,0.0,0.0,-0.0,-0.0,1726473663.2283607,-0.0054532121984857025,-1.5640100987152092,0.5127475644267626
51.978633880615234,0.0,0.0,-0.3700000047683716,0.28999999165534973,0.0,0.0,0.0,-0.0,-0.0,1726473663.2383559,-0.005457258758324995,-1.5640199419022565,0.5129419515877635
51.978633880615234,0.0,0.0,-0.3700000047683716,0.28999999165534973,0.0,0.0,0.0,-0.0,-0.0,1726473663.2486205,-0.00543309099647251,-1.564030204031693,0.5128605490246778
51.978633880615234,0.0,0.0,-0.3700000047683716,0.28999999165534973,0.0,0.0,0.0,-0.0,-0.0,1726473663.2585592,-0.005403130607910437,-1.5640338713160415,0.5126066804693951
51.978633880615234,0.0,0.0,-0.3700000047683716,0.28999999165534973,0.0,0.0,0.0,-0.0,-0.0,1726473663.268251,-0.005367319308567574,-1.5640553255204135,0.5126020995026376
52.07703399658203,0.0,0.0,-0.44999998807907104,0.23999999463558197,0.001090830541215837,0.0,0.0,-0.0,-0.0,1726473663.2786336,-0.005392023369368588,-1.5640397303411047,0.5126621627901351
52.07703399658203,0.0,0.0,-0.44999998807907104,0.23999999463558197,0.001090830541215837,0.0,0.0,-0.0,-0.0,1726473663.2880292,-0.0054137002667093165,-1.5640378199822575,0.5126977769759539
52.07703399658203,0.0,0.0,-0.44999998807907104,0.23999999463558197,0.001090830541215837,0.0,0.0,-0.0,-0.0,1726473663.2986479,-0.005446925717886482,-1.5640238699037623,0.5128764461571169
52.07703399658203,0.0,0.0,-0.44999998807907104,0.23999999463558197,0.001090830541215837,0.0,0.0,-0.0,-0.0,1726473663.308544,-0.005465805340676364,-1.5640166814180934,0.5128694397806673
52.07703399658203,0.0,0.0,-0.44999998807907104,0.23999999463558197,0.001090830541215837,0.0,0.0,-0.0,-0.0,1726473663.318371,-0.005456137188180434,-1.5640239010828343,0.512733699139792
52.07703399658203,0.0,0.0,-0.44999998807907104,0.23999999463558197,0.001090830541215837,0.0,0.0,-0.0,-0.0,1726473663.3287294,-0.0054103928062798025,-1.564020011298632,0.512890839229598
52.07703399658203,0.0,0.0,-0.44999998807907104,0.23999999463558197,0.001090830541215837,0.0,0.0,-0.0,-0.0,1726473663.338271,-0.005388694280524888,-1.5640459872845982,0.5126593062331919
52.07703399658203,0.0,0.0,-0.44999998807907104,0.23999999463558197,0.001090830541215837,0.0,0.0,-0.0,-0.0,1726473663.3487563,-0.005395330683209412,-1.5640401678255242,0.5127100213608621
52.07703399658203,0.0,0.0,-0.44999998807907104,0.23999999463558197,0.001090830541215837,0.0,0.0,-0.0,-0.0,1726473663.3584917,-0.005409123882042875,-1.564039040436469,0.5127442938158427
52.07703399658203,0.0,0.0,-0.44999998807907104,0.23999999463558197,0.001090830541215837,0.0,0.0,-0.0,-0.0,1726473663.3678107,-0.005440616546790262,-1.5640213731415018,0.5128246140863997
52.177616119384766,0.0,0.0,-0.38999998569488525,0.25999999046325684,0.002181661082431674,0.0,0.0,-0.0,-0.0,1726473663.3785663,-0.005445994985083035,-1.5640217993531222,0.5126424564449653
52.177616119384766,0.0,0.0,-0.38999998569488525,0.25999999046325684,0.002181661082431674,0.0,0.0,-0.0,-0.0,1726473663.3885677,-0.005450592772732856,-1.564026605140805,0.5128429740771319
52.177616119384766,0.0,0.0,-0.38999998569488525,0.25999999046325684,0.002181661082431674,0.0,0.0,-0.0,-0.0,1726473663.3977487,-0.005430176368027181,-1.564018802025182,0.512821485794063
52.177616119384766,0.0,0.0,-0.38999998569488525,0.25999999046325684,0.002181661082431674,0.0,0.0,-0.0,-0.0,1726473663.408251,-0.005416666666767897,-1.5640213175684885,0.5128393171136595
52.177616119384766,0.0,0.0,-0.38999998569488525,0.25999999046325684,0.002181661082431674,0.0,0.0,-0.0,-0.0,1726473663.418208,-0.005413725552608977,-1.5640335249499613,0.5127662894582363
52.177616119384766,0.0,0.0,-0.38999998569488525,0.25999999046325684,0.002181661082431674,0.0,0.0,-0.0,-0.0,1726473663.4282315,-0.005418266782732022,-1.564037219115954,0.5127520429126275
52.177616119384766,0.0,0.0,-0.38999998569488525,0.25999999046325684,0.002181661082431674,0.0,0.0,-0.0,-0.0,1726473663.4385219,-0.005405320576554152,-1.5640420464876577,0.51280729072682
52.177616119384766,0.0,0.0,-0.38999998569488525,0.25999999046325684,0.002181661082431674,0.0,0.0,-0.0,-0.0,1726473663.448268,-0.005422846322193233,-1.5640305122143545,0.5128322644936606
52.177616119384766,0.0,0.0,-0.38999998569488525,0.25999999046325684,0.002181661082431674,0.0,0.0,-0.0,-0.0,1726473663.4581027,-0.00544606728185503,-1.5640295821403005,0.5128544780218421
52.177616119384766,0.0,0.0,-0.38999998569488525,0.25999999046325684,0.002181661082431674,0.0,0.0,-0.0,-0.0,1726473663.4684753,-0.005449157510486326,-1.564038471620843,0.5127639306995542
52.277442932128906,0.0,0.0,-0.4000000059604645,0.23999999463558197,-0.002181661082431674,0.0,0.0,-0.0,-0.0,1726473663.478325,-0.005429657236711864,-1.5640240150147218,0.51276676625422
52.277442932128906,0.0,0.0,-0.4000000059604645,0.23999999463558197,-0.002181661082431674,0.0,0.0,-0.0,-0.0,1726473663.4880457,-0.005408333568227379,-1.5640273762190287,0.5129514965688993
52.277442932128906,0.0,0.0,-0.4000000059604645,0.23999999463558197,-0.002181661082431674,0.0,0.0,-0.0,-0.0,1726473663.4985683,-0.005397456077506437,-1.5640239550116275,0.5126704633832267
52.277442932128906,0.0,0.0,-0.4000000059604645,0.23999999463558197,-0.002181661082431674,0.0,0.0,-0.0,-0.0,1726473663.5078096,-0.00541041386620331,-1.5640329220115,0.5129683809298448
52.277442932128906,0.0,0.0,-0.4000000059604645,0.23999999463558197,-0.002181661082431674,0.0,0.0,-0.0,-0.0,1726473663.5180514,-0.0054296761741325136,-1.5640408530763847,0.5126915557147013
52.277442932128906,0.0,0.0,-0.4000000059604645,0.23999999463558197,-0.002181661082431674,0.0,0.0,-0.0,-0.0,1726473663.5277288,-0.005436447279704868,-1.5640373333753632,0.512733002092007
52.277442932128906,0.0,0.0,-0.4000000059604645,0.23999999463558197,-0.002181661082431674,0.0,0.0,-0.0,-0.0,1726473663.5378134,-0.0054255252697581295,-1.5640457208583014,0.5126378620269625
52.277442932128906,0.0,0.0,-0.4000000059604645,0.23999999463558197,-0.002181661082431674,0.0,0.0,-0.0,-0.0,1726473663.5481336,-0.005408417519948053,-1.5640400746041403,0.5128743161917032
52.277442932128906,0.0,0.0,-0.4000000059604645,0.23999999463558197,-0.002181661082431674,0.0,0.0,-0.0,-0.0,1726473663.5577664,-0.005403053309231607,-1.564030078020185,0.5127804231013124
52.277442932128906,0.0,0.0,-0.4000000059604645,0.23999999463558197,-0.002181661082431674,0.0,0.0,-0.0,-0.0,1726473663.5678444,-0.005403295258382604,-1.5640155587716569,0.5128597773358753
52.37697982788086,0.0,0.0,-0.36000001430511475,0.2800000011920929,0.0,0.0,0.0,-0.0,-0.0,1726473663.577812,-0.005415598125423395,-1.564006373544711,0.5128785490926443
52.37697982788086,0.0,0.0,-0.36000001430511475,0.2800000011920929,0.0,0.0,0.0,-0.0,-0.0,1726473663.5878298,-0.005429714566052077,-1.5640216748216629,0.5128429098052975
52.37697982788086,0.0,0.0,-0.36000001430511475,0.2800000011920929,0.0,0.0,0.0,-0.0,-0.0,1726473663.598389,-0.005426767488853795,-1.5640324631609723,0.5126971593699933
52.37697982788086,0.0,0.0,-0.36000001430511475,0.2800000011920929,0.0,0.0,0.0,-0.0,-0.0,1726473663.6082244,-0.005419462474227099,-1.5640585222382153,0.5127606364061091
52.37697982788086,0.0,0.0,-0.36000001430511475,0.2800000011920929,0.0,0.0,0.0,-0.0,-0.0,1726473663.6179657,-0.005407277735413495,-1.5640506582931717,0.5128170734614316
52.37697982788086,0.0,0.0,-0.36000001430511475,0.2800000011920929,0.0,0.0,0.0,-0.0,-0.0,1726473663.627912,-0.005407730756987121,-1.564046330135777,0.5127204697037631
52.37697982788086,0.0,0.0,-0.36000001430511475,0.2800000011920929,0.0,0.0,0.0,-0.0,-0.0,1726473663.6378734,-0.005405877588590848,-1.5640259027622232,0.5128352259807907
52.37697982788086,0.0,0.0,-0.36000001430511475,0.2800000011920929,0.0,0.0,0.0,-0.0,-0.0,1726473663.6479108,-0.005426296162528171,-1.5640152208382763,0.5128288377762102
52.37697982788086,0.0,0.0,-0.36000001430511475,0.2800000011920929,0.0,0.0,0.0,-0.0,-0.0,1726473663.6578627,-0.005430145237408973,-1.5640121448842603,0.5129539360319152
52.37697982788086,0.0,0.0,-0.36000001430511475,0.2800000011920929,0.0,0.0,0.0,-0.0,-0.0,1726473663.6679268,-0.0054403004550148655,-1.5640310853994923,0.5127831961583412
52.476627349853516,0.0,0.0,-0.41999998688697815,0.23000000417232513,-0.0032724919728934765,0.0,0.0,-0.0,-0.0,1726473663.6777873,-0.00543007494864918,-1.5640417074707516,0.5128521128323723
52.476627349853516,0.0,0.0,-0.41999998688697815,0.23000000417232513,-0.0032724919728934765,0.0,0.0,-0.0,-0.0,1726473663.6879287,-0.005417175978084981,-1.5640411121623694,0.5125528396120939
52.476627349853516,0.0,0.0,-0.41999998688697815,0.23000000417232513,-0.0032724919728934765,0.0,0.0,-0.0,-0.0,1726473663.6978543,-0.005388007152625722,-1.5640585072670314,0.5126547072215768
52.476627349853516,0.0,0.0,-0.41999998688697815,0.23000000417232513,-0.0032724919728934765,0.0,0.0,-0.0,-0.0,1726473663.7083344,-0.005401446135511237,-1.5640385537649426,0.51282187646041
52.476627349853516,0.0,0.0,-0.41999998688697815,0.23000000417232513,-0.0032724919728934765,0.0,0.0,-0.0,-0.0,1726473663.7184238,-0.005415804605150912,-1.5640161935842922,0.5127615105145882
52.476627349853516,0.0,0.0,-0.41999998688697815,0.23000000417232513,-0.0032724919728934765,0.0,0.0,-0.0,-0.0,1726473663.7286189,-0.005436947777796845,-1.5640132896451417,0.5131087100894726
52.476627349853516,0.0,0.0,-0.41999998688697815,0.23000000417232513,-0.0032724919728934765,0.0,0.0,-0.0,-0.0,1726473663.7383857,-0.005448725784648016,-1.5640190655115394,0.5126758704749401
52.476627349853516,0.0,0.0,-0.41999998688697815,0.23000000417232513,-0.0032724919728934765,0.0,0.0,-0.0,-0.0,1726473663.748291,-0.0054317602568652356,-1.564026871761982,0.5128957113933689
52.476627349853516,0.0,0.0,-0.41999998688697815,0.23000000417232513,-0.0032724919728934765,0.0,0.0,-0.0,-0.0,1726473663.7585375,-0.005424310534453892,-1.5640353186339297,0.512673112736561
52.476627349853516,0.0,0.0,-0.41999998688697815,0.23000000417232513,-0.0032724919728934765,0.0,0.0,-0.0,-0.0,1726473663.7682178,-0.0053850976583575,-1.564052957253522,0.5128249781670895
52.576751708984375,0.0,0.0,-0.4000000059604645,0.25999999046325684,0.0,0.0,0.0,-0.0,-0.0,1726473663.778528,-0.005390014686689426,-1.5640436707349168,0.5125776751087556
52.576751708984375,0.0,0.0,-0.4000000059604645,0.25999999046325684,0.0,0.0,0.0,-0.0,-0.0,1726473663.7884002,-0.005420543803329881,-1.5640336557598542,0.5126385486479733
52.576751708984375,0.0,0.0,-0.4000000059604645,0.25999999046325684,0.0,0.0,0.0,-0.0,-0.0,1726473663.7984397,-0.005446255668652379,-1.564013924035993,0.5127319495983613
52.576751708984375,0.0,0.0,-0.4000000059604645,0.25999999046325684,0.0,0.0,0.0,-0.0,-0.0,1726473663.8085828,-0.0054498236109949616,-1.5640284720442694,0.512978694173495
52.576751708984375,0.0,0.0,-0.4000000059604645,0.25999999046325684,0.0,0.0,0.0,-0.0,-0.0,1726473663.8180861,-0.005431578080950106,-1.56400951098626,0.5128442750048399
52.576751708984375,0.0,0.0,-0.4000000059604645,0.25999999046325684,0.0,0.0,0.0,-0.0,-0.0,1726473663.8282564,-0.00542979064331006,-1.5640165122882,0.5128129550742375
52.576751708984375,0.0,0.0,-0.4000000059604645,0.25999999046325684,0.0,0.0,0.0,-0.0,-0.0,1726473663.8386977,-0.005400056658110268,-1.5640333912598576,0.5129028696888391
52.576751708984375,0.0,0.0,-0.4000000059604645,0.25999999046325684,0.0,0.0,0.0,-0.0,-0.0,1726473663.8484674,-0.0053965695307909315,-1.5640366243563464,0.512748602844812
52.576751708984375,0.0,0.0,-0.4000000059604645,0.25999999046325684,0.0,0.0,0.0,-0.0,-0.0,1726473663.8584564,-0.00540312799915595,-1.5640437440603105,0.5125921117688356
52.576751708984375,0.0,0.0,-0.4000000059604645,0.25999999046325684,0.0,0.0,0.0,-0.0,-0.0,1726473663.8679101,-0.005424737224998008,-1.5640362198245108,0.5127778282130848
52.674320220947266,0.0,0.0,-0.3700000047683716,0.2800000011920929,-0.002181661082431674,0.0,0.0,-0.0,-0.0,1726473663.8777122,-0.005430646102148307,-1.5640255834777663,0.5127166133856091
52.674320220947266,0.0,0.0,-0.3700000047683716,0.2800000011920929,-0.002181661082431674,0.0,0.0,-0.0,-0.0,1726473663.8880453,-0.0054413576418693545,-1.5640114366112905,0.5129083419146637
52.674320220947266,0.0,0.0,-0.3700000047683716,0.2800000011920929,-0.002181661082431674,0.0,0.0,-0.0,-0.0,1726473663.8984954,-0.005434966160500689,-1.564017808971783,0.512855254636615
52.674320220947266,0.0,0.0,-0.3700000047683716,0.2800000011920929,-0.002181661082431674,0.0,0.0,-0.0,-0.0,1726473663.9084666,-0.005423410403045599,-1.5640257627336762,0.5126493787951596
52.674320220947266,0.0,0.0,-0.3700000047683716,0.2800000011920929,-0.002181661082431674,0.0,0.0,-0.0,-0.0,1726473663.9184945,-0.0053967569094283945,-1.5640274634128755,0.5127184294803477
52.674320220947266,0.0,0.0,-0.3700000047683716,0.2800000011920929,-0.002181661082431674,0.0,0.0,-0.0,-0.0,1726473663.9280944,-0.00538999486105813,-1.5640413368748953,0.5126730660240895
52.674320220947266,0.0,0.0,-0.3700000047683716,0.2800000011920929,-0.002181661082431674,0.0,0.0,-0.0,-0.0,1726473663.9384518,-0.005410745570370787,-1.56403780614228,0.5125806884701201
52.674320220947266,0.0,0.0,-0.3700000047683716,0.2800000011920929,-0.002181661082431674,0.0,0.0,-0.0,-0.0,1726473663.9483213,-0.005443381805055435,-1.5640361296788494,0.5126357853333179
52.674320220947266,0.0,0.0,-0.3700000047683716,0.2800000011920929,-0.002181661082431674,0.0,0.0,-0.0,-0.0,1726473663.9581733,-0.005445696727426094,-1.5640351603620077,0.5128418565930895
52.674320220947266,0.0,0.0,-0.3700000047683716,0.2800000011920929,-0.002181661082431674,0.0,0.0,-0.0,-0.0,1726473663.9682589,-0.005438309689313438,-1.564027509190438,0.512699716351337
52.774410247802734,0.0,0.0,-0.44999998807907104,0.23999999463558197,0.0,0.0,0.0,-0.0,-0.0,1726473663.9785721,-0.005406431707866115,-1.5640123526793628,0.5128709140952906
52.774410247802734,0.0,0.0,-0.44999998807907104,0.23999999463558197,0.0,0.0,0.0,-0.0,-0.0,1726473663.98816,-0.005406599383299651,-1.5640079958790465,0.5128657093645171
52.774410247802734,0.0,0.0,-0.44999998807907104,0.23999999463558197,0.0,0.0,0.0,-0.0,-0.0,1726473663.998096,-0.005394127592265221,-1.5640094712766157,0.512704202589756
52.774410247802734,0.0,0.0,-0.44999998807907104,0.23999999463558197,0.0,0.0,0.0,-0.0,-0.0,1726473664.007853,-0.005445598853325215,-1.5640316646473675,0.5126772893217417
52.774410247802734,0.0,0.0,-0.44999998807907104,0.23999999463558197,0.0,0.0,0.0,-0.0,-0.0,1726473664.0178993,-0.005452691602201076,-1.5640444497150945,0.5125610389101634
52.774410247802734,0.0,0.0,-0.44999998807907104,0.23999999463558197,0.0,0.0,0.0,-0.0,-0.0,1726473664.0279028,-0.005437336022569927,-1.5640508746080315,0.5128302666447998
52.774410247802734,0.0,0.0,-0.44999998807907104,0.23999999463558197,0.0,0.0,0.0,-0.0,-0.0,1726473664.037682,-0.005410444685720672,-1.5640379377758562,0.5127334001724434
52.774410247802734,0.0,0.0,-0.44999998807907104,0.23999999463558197,0.0,0.0,0.0,-0.0,-0.0,1726473664.0478806,-0.005400247542800845,-1.5640181206685109,0.5128762181536631
52.774410247802734,0.0,0.0,-0.44999998807907104,0.23999999463558197,0.0,0.0,0.0,-0.0,-0.0,1726473664.0579448,-0.005391002009591532,-1.5640104839001778,0.5128620764060419
52.774410247802734,0.0,0.0,-0.44999998807907104,0.23999999463558197,0.0,0.0,0.0,-0.0,-0.0,1726473664.0679486,-0.005426186702311959,-1.5640044559141055,0.5126777392811931
52.874595642089844,0.0,0.0,-0.4099999964237213,0.27000001072883606,0.001090830541215837,0.0,0.0,-0.0,-0.0,1726473664.0778282,-0.005445573621164412,-1.564020633316921,0.5127588016050907
52.874595642089844,0.0,0.0,-0.4099999964237213,0.27000001072883606,0.001090830541215837,0.0,0.0,-0.0,-0.0,1726473664.0881171,-0.0054530564723556585,-1.5640335540626418,0.5127104932310202
52.874595642089844,0.0,0.0,-0.4099999964237213,0.27000001072883606,0.001090830541215837,0.0,0.0,-0.0,-0.0,1726473664.097845,-0.00544081852789473,-1.5640388326866606,0.5127920110764487
52.874595642089844,0.0,0.0,-0.4099999964237213,0.27000001072883606,0.001090830541215837,0.0,0.0,-0.0,-0.0,1726473664.1079493,-0.0054231444490006496,-1.5640428404946403,0.5128766829081439
52.874595642089844,0.0,0.0,-0.4099999964237213,0.27000001072883606,0.001090830541215837,0.0,0.0,-0.0,-0.0,1726473664.1179428,-0.005400957153609394,-1.5640413994260625,0.5128855737049801
52.874595642089844,0.0,0.0,-0.4099999964237213,0.27000001072883606,0.001090830541215837,0.0,0.0,-0.0,-0.0,1726473664.1278093,-0.005409557395476646,-1.564033571719598,0.5129099057087911
52.874595642089844,0.0,0.0,-0.4099999964237213,0.27000001072883606,0.001090830541215837,0.0,0.0,-0.0,-0.0,1726473664.1378071,-0.00540106705597513,-1.564014238004329,0.5129325121644595
52.874595642089844,0.0,0.0,-0.4099999964237213,0.27000001072883606,0.001090830541215837,0.0,0.0,-0.0,-0.0,1726473664.1478276,-0.005433184456155017,-1.5640080588740253,0.512806880361053
52.874595642089844,0.0,0.0,-0.4099999964237213,0.27000001072883606,0.001090830541215837,0.0,0.0,-0.0,-0.0,1726473664.1578507,-0.005435138724764806,-1.5640201684662844,0.5127765562020539
52.874595642089844,0.0,0.0,-0.4099999964237213,0.27000001072883606,0.001090830541215837,0.0,0.0,-0.0,-0.0,1726473664.1678767,-0.005431277313990865,-1.5640315817065142,0.5127355426712682
52.9739990234375,0.0,0.0,-0.41999998688697815,0.25,0.001090830541215837,0.0,0.0,-0.0,-0.0,1726473664.1778939,-0.005419725118095931,-1.5640483265874972,0.5126770238109261
52.9739990234375,0.0,0.0,-0.41999998688697815,0.25,0.001090830541215837,0.0,0.0,-0.0,-0.0,1726473664.1878564,-0.005404751602228377,-1.5640445883138947,0.5126112993945254
52.9739990234375,0.0,0.0,-0.41999998688697815,0.25,0.001090830541215837,0.0,0.0,-0.0,-0.0,1726473664.1980336,-0.005404671818615482,-1.5640421955524344,0.5126227800167449
52.9739990234375,0.0,0.0,-0.41999998688697815,0.25,0.001090830541215837,0.0,0.0,-0.0,-0.0,1726473664.2083585,-0.00541222741993647,-1.5640225667443959,0.5128375470316444
52.9739990234375,0.0,0.0,-0.41999998688697815,0.25,0.001090830541215837,0.0,0.0,-0.0,-0.0,1726473664.218463,-0.00541617510983483,-1.5640107510763592,0.5129821015267295
52.9739990234375,0.0,0.0,-0.41999998688697815,0.25,0.001090830541215837,0.0,0.0,-0.0,-0.0,1726473664.228329,-0.005437623740640535,-1.5640059416656469,0.512898472576633
52.9739990234375,0.0,0.0,-0.41999998688697815,0.25,0.001090830541215837,0.0,0.0,-0.0,-0.0,1726473664.2389674,-0.0054243253074682035,-1.5640206790514266,0.5128034818869143
52.9739990234375,0.0,0.0,-0.41999998688697815,0.25,0.001090830541215837,0.0,0.0,-0.0,-0.0,1726473664.2485154,-0.005423481810573394,-1.5640350180083014,0.5128476062957358
52.9739990234375,0.0,0.0,-0.41999998688697815,0.25,0.001090830541215837,0.0,0.0,-0.0,-0.0,1726473664.2582455,-0.005410816231846114,-1.564044839260833,0.5126833865270383
52.9739990234375,0.0,0.0,-0.41999998688697815,0.25,0.001090830541215837,0.0,0.0,-0.0,-0.0,1726473664.2686005,-0.005395023521201178,-1.5640322115535168,0.5127175182314556
53.077449798583984,0.0,0.0,-0.36000001430511475,0.28999999165534973,-0.001090830541215837,0.0,0.0,-0.0,-0.0,1726473664.2782698,-0.005405898495721788,-1.5640304004502166,0.5127068170869218
53.077449798583984,0.0,0.0,-0.36000001430511475,0.28999999165534973,-0.001090830541215837,0.0,0.0,-0.0,-0.0,1726473664.2882648,-0.005409620788947963,-1.5640164032985628,0.5128983364406262
53.077449798583984,0.0,0.0,-0.36000001430511475,0.28999999165534973,-0.001090830541215837,0.0,0.0,-0.0,-0.0,1726473664.2984571,-0.005429070498123721,-1.5640181032283922,0.5128603261101053
53.077449798583984,0.0,0.0,-0.36000001430511475,0.28999999165534973,-0.001090830541215837,0.0,0.0,-0.0,-0.0,1726473664.3082092,-0.005423004698719252,-1.564014844905253,0.5129214485655246
53.077449798583984,0.0,0.0,-0.36000001430511475,0.28999999165534973,-0.001090830541215837,0.0,0.0,-0.0,-0.0,1726473664.3183339,-0.005409840280607477,-1.5640335105900016,0.5128056583424142
53.077449798583984,0.0,0.0,-0.36000001430511475,0.28999999165534973,-0.001090830541215837,0.0,0.0,-0.0,-0.0,1726473664.3288739,-0.005414901537960144,-1.5640486380678948,0.5125940037529227
53.077449798583984,0.0,0.0,-0.36000001430511475,0.28999999165534973,-0.001090830541215837,0.0,0.0,-0.0,-0.0,1726473664.338438,-0.00540336289340466,-1.564025098839048,0.5127926599242938
53.077449798583984,0.0,0.0,-0.36000001430511475,0.28999999165534973,-0.001090830541215837,0.0,0.0,-0.0,-0.0,1726473664.348492,-0.005399834667310503,-1.5640345773944773,0.5127116825255412
53.077449798583984,0.0,0.0,-0.36000001430511475,0.28999999165534973,-0.001090830541215837,0.0,0.0,-0.0,-0.0,1726473664.35818,-0.005426696358885814,-1.5640211873102654,0.5128437183785751
53.077449798583984,0.0,0.0,-0.36000001430511475,0.28999999165534973,-0.001090830541215837,0.0,0.0,-0.0,-0.0,1726473664.3682742,-0.005438243750456746,-1.5640204354790006,0.5128714660818693
53.17694854736328,0.0,0.0,-0.4399999976158142,0.25,0.0,0.0,0.0,-0.0,-0.0,1726473664.3787389,-0.005447746181669513,-1.564029416222284,0.51281361434969
53.17694854736328,0.0,0.0,-0.4399999976158142,0.25,0.0,0.0,0.0,-0.0,-0.0,1726473664.388023,-0.0054237503634197385,-1.5640251095772788,0.5129255200199674
53.17694854736328,0.0,0.0,-0.4399999976158142,0.25,0.0,0.0,0.0,-0.0,-0.0,1726473664.3977475,-0.0053993862114333525,-1.5640305065872242,0.5127134749304966
53.17694854736328,0.0,0.0,-0.4399999976158142,0.25,0.0,0.0,0.0,-0.0,-0.0,1726473664.4075143,-0.005390399065519152,-1.5640387859881129,0.512791898355838
53.17694854736328,0.0,0.0,-0.4399999976158142,0.25,0.0,0.0,0.0,-0.0,-0.0,1726473664.4178894,-0.00539381895051605,-1.5640357301157137,0.5126316793587041
53.17694854736328,0.0,0.0,-0.4399999976158142,0.25,0.0,0.0,0.0,-0.0,-0.0,1726473664.4276242,-0.005432006786902927,-1.5640346307118058,0.5127324182257743
53.17694854736328,0.0,0.0,-0.4399999976158142,0.25,0.0,0.0,0.0,-0.0,-0.0,1726473664.4383993,-0.005453054520737138,-1.5640276236804684,0.5128327418594634
53.17694854736328,0.0,0.0,-0.4399999976158142,0.25,0.0,0.0,0.0,-0.0,-0.0,1726473664.4485238,-0.005444980175651245,-1.5640308530792078,0.5128061613606602
53.17694854736328,0.0,0.0,-0.4399999976158142,0.25,0.0,0.0,0.0,-0.0,-0.0,1726473664.458409,-0.005424888464493334,-1.5640184162246469,0.5128572382229116
53.17694854736328,0.0,0.0,-0.4399999976158142,0.25,0.0,0.0,0.0,-0.0,-0.0,1726473664.4682014,-0.005402369718721085,-1.5640359719251178,0.5128551548176944
53.2763671875,0.0,0.0,-0.3700000047683716,0.25999999046325684,0.002181661082431674,0.0,0.0,-0.0,-0.0,1726473664.4783664,-0.0054056240499871025,-1.564039474856733,0.5127238525966367
53.2763671875,0.0,0.0,-0.3700000047683716,0.25999999046325684,0.002181661082431674,0.0,0.0,-0.0,-0.0,1726473664.4882324,-0.0054013679064110805,-1.564041684132901,0.5125669703150183
53.2763671875,0.0,0.0,-0.3700000047683716,0.25999999046325684,0.002181661082431674,0.0,0.0,-0.0,-0.0,1726473664.4986196,-0.005423918076345247,-1.5640301675025892,0.5128532203651194
53.2763671875,0.0,0.0,-0.3700000047683716,0.25999999046325684,0.002181661082431674,0.0,0.0,-0.0,-0.0,1726473664.5084078,-0.005438894010579822,-1.564030224858898,0.5128103907147336
53.2763671875,0.0,0.0,-0.3700000047683716,0.25999999046325684,0.002181661082431674,0.0,0.0,-0.0,-0.0,1726473664.5179975,-0.005436414540303615,-1.5640271746784233,0.5128429769714854
53.2763671875,0.0,0.0,-0.3700000047683716,0.25999999046325684,0.002181661082431674,0.0,0.0,-0.0,-0.0,1726473664.528179,-0.005432917763444755,-1.5640327256454347,0.5127014643458537
53.2763671875,0.0,0.0,-0.3700000047683716,0.25999999046325684,0.002181661082431674,0.0,0.0,-0.0,-0.0,1726473664.5383344,-0.005411145113890707,-1.564023324188868,0.5128489729105855
53.2763671875,0.0,0.0,-0.3700000047683716,0.25999999046325684,0.002181661082431674,0.0,0.0,-0.0,-0.0,1726473664.5482635,-0.005408784864531259,-1.5640419449156033,0.5128509260557628
53.2763671875,0.0,0.0,-0.3700000047683716,0.25999999046325684,0.002181661082431674,0.0,0.0,-0.0,-0.0,1726473664.5582407,-0.005390288260952462,-1.5640467620767562,0.5128946565111091
53.2763671875,0.0,0.0,-0.3700000047683716,0.25999999046325684,0.002181661082431674,0.0,0.0,-0.0,-0.0,1726473664.5679178,-0.005412996606605295,-1.564037149851258,0.5126474462800985
53.38003921508789,0.0,0.0,-0.4300000071525574,0.23000000417232513,-0.002181661082431674,0.0,0.0,-0.0,-0.0,1726473664.5778408,-0.005427916230205616,-1.5640326566189855,0.5126042688796337
53.38003921508789,0.0,0.0,-0.4300000071525574,0.23000000417232513,-0.002181661082431674,0.0,0.0,-0.0,-0.0,1726473664.5880399,-0.005432869866182263,-1.5640280200025725,0.5127486969171207
53.38003921508789,0.0,0.0,-0.4300000071525574,0.23000000417232513,-0.002181661082431674,0.0,0.0,-0.0,-0.0,1726473664.5979643,-0.005435584655865202,-1.5640278457843622,0.5127304841472505
53.38003921508789,0.0,0.0,-0.4300000071525574,0.23000000417232513,-0.002181661082431674,0.0,0.0,-0.0,-0.0,1726473664.608336,-0.0054308325774299945,-1.5640320025385257,0.5129624388589011
53.38003921508789,0.0,0.0,-0.4300000071525574,0.23000000417232513,-0.002181661082431674,0.0,0.0,-0.0,-0.0,1726473664.6183522,-0.00540429347015404,-1.5640331803485774,0.512777090658775
53.38003921508789,0.0,0.0,-0.4300000071525574,0.23000000417232513,-0.002181661082431674,0.0,0.0,-0.0,-0.0,1726473664.628287,-0.005393888782776389,-1.5640101018397057,0.5129674227280883
53.38003921508789,0.0,0.0,-0.4300000071525574,0.23000000417232513,-0.002181661082431674,0.0,0.0,-0.0,-0.0,1726473664.6386433,-0.005403671385987606,-1.5640199147840756,0.5129522328469452
53.38003921508789,0.0,0.0,-0.4300000071525574,0.23000000417232513,-0.002181661082431674,0.0,0.0,-0.0,-0.0,1726473664.6486657,-0.005415711857894932,-1.5640401911011876,0.5126197066633785
53.38003921508789,0.0,0.0,-0.4300000071525574,0.23000000417232513,-0.002181661082431674,0.0,0.0,-0.0,-0.0,1726473664.6584997,-0.005434167255479298,-1.5640414275114316,0.51267993320873
53.38003921508789,0.0,0.0,-0.4300000071525574,0.23000000417232513,-0.002181661082431674,0.0,0.0,-0.0,-0.0,1726473664.6685033,-0.005432338470710001,-1.5640467682565085,0.5126790988836802
53.47648620605469,0.0,0.0,-0.4300000071525574,0.25,0.0032724919728934765,0.0,0.0,-0.0,-0.0,1726473664.6785502,-0.005429303777038765,-1.5640322910716713,0.5127061970640161
53.47648620605469,0.0,0.0,-0.4300000071525574,0.25,0.0032724919728934765,0.0,0.0,-0.0,-0.0,1726473664.688348,-0.00541081504914608,-1.5640120342422479,0.5127951534969326
53.47648620605469,0.0,0.0,-0.4300000071525574,0.25,0.0032724919728934765,0.0,0.0,-0.0,-0.0,1726473664.698358,-0.005410353069778251,-1.564029315463886,0.5128794893377837
53.47648620605469,0.0,0.0,-0.4300000071525574,0.25,0.0032724919728934765,0.0,0.0,-0.0,-0.0,1726473664.7081847,-0.005404230065308659,-1.5640053484910612,0.5129143431945481
53.47648620605469,0.0,0.0,-0.4300000071525574,0.25,0.0032724919728934765,0.0,0.0,-0.0,-0.0,1726473664.7184803,-0.0054198006844761995,-1.5640173227153296,0.5127316688296754
53.47648620605469,0.0,0.0,-0.4300000071525574,0.25,0.0032724919728934765,0.0,0.0,-0.0,-0.0,1726473664.7283134,-0.005438709031439832,-1.5640363982552978,0.5127848439373554
53.47648620605469,0.0,0.0,-0.4300000071525574,0.25,0.0032724919728934765,0.0,0.0,-0.0,-0.0,1726473664.7383785,-0.005427570536554736,-1.5640459282587558,0.5126712937268342
53.47648620605469,0.0,0.0,-0.4300000071525574,0.25,0.0032724919728934765,0.0,0.0,-0.0,-0.0,1726473664.7487016,-0.00541615112018526,-1.5640300892257355,0.5127196077334464
53.47648620605469,0.0,0.0,-0.4300000071525574,0.25,0.0032724919728934765,0.0,0.0,-0.0,-0.0,1726473664.7584455,-0.0053985948117962115,-1.5640322456156568,0.5127830765990471
53.47648620605469,0.0,0.0,-0.4300000071525574,0.25,0.0032724919728934765,0.0,0.0,-0.0,-0.0,1726473664.7683182,-0.005405649028080282,-1.5640270541287782,0.5129060979895828
53.47648620605469,0.0,0.0,-0.4300000071525574,0.25,0.0032724919728934765,0.0,0.0,-0.0,-0.0,1726473664.778344,-0.005417048941526347,-1.564019639770787,0.5128250191762572
53.57966232299805,0.0,0.0,-0.4099999964237213,0.25999999046325684,0.001090830541215837,0.0,0.0,-0.0,-0.0,1726473664.7885098,-0.005423856894259818,-1.5640299142169307,0.5128762170543899
53.57966232299805,0.0,0.0,-0.4099999964237213,0.25999999046325684,0.001090830541215837,0.0,0.0,-0.0,-0.0,1726473664.798416,-0.0054176762475835,-1.5640246304802818,0.5127316954529005
53.57966232299805,0.0,0.0,-0.4099999964237213,0.25999999046325684,0.001090830541215837,0.0,0.0,-0.0,-0.0,1726473664.8082902,-0.0054456326516462905,-1.5640338217348773,0.5127490789301652
53.57966232299805,0.0,0.0,-0.4099999964237213,0.25999999046325684,0.001090830541215837,0.0,0.0,-0.0,-0.0,1726473664.817286,-0.005433755301979459,-1.5640459485840754,0.5125483537110186
53.57966232299805,0.0,0.0,-0.4099999964237213,0.25999999046325684,0.001090830541215837,0.0,0.0,-0.0,-0.0,1726473664.828348,-0.005420183180041501,-1.5640546885972733,0.5127552457911105
53.57966232299805,0.0,0.0,-0.4099999964237213,0.25999999046325684,0.001090830541215837,0.0,0.0,-0.0,-0.0,1726473664.838911,-0.005410447429460143,-1.5640349344850062,0.5127929403729395
53.57966232299805,0.0,0.0,-0.4099999964237213,0.25999999046325684,0.001090830541215837,0.0,0.0,-0.0,-0.0,1726473664.8485348,-0.005407909032249033,-1.5640353263909959,0.5127968659057
53.57966232299805,0.0,0.0,-0.4099999964237213,0.25999999046325684,0.001090830541215837,0.0,0.0,-0.0,-0.0,1726473664.858603,-0.0054176526584956445,-1.564021233563167,0.5129018782348674
53.57966232299805,0.0,0.0,-0.4099999964237213,0.25999999046325684,0.001090830541215837,0.0,0.0,-0.0,-0.0,1726473664.8685014,-0.005427614283597603,-1.564027412638911,0.5129544524384744
53.67695999145508,0.0,0.0,-0.4399999976158142,0.25,0.0,0.0,0.0,-0.0,-0.0,1726473664.8784935,-0.005432358805106581,-1.5640216630681028,0.5127878455776557
53.67695999145508,0.0,0.0,-0.4399999976158142,0.25,0.0,0.0,0.0,-0.0,-0.0,1726473664.8883605,-0.0054243546558202455,-1.5640378971084286,0.5128256905950423
53.67695999145508,0.0,0.0,-0.4399999976158142,0.25,0.0,0.0,0.0,-0.0,-0.0,1726473664.8984358,-0.0054238517885272005,-1.5640428028736564,0.5127315407383213
53.67695999145508,0.0,0.0,-0.4399999976158142,0.25,0.0,0.0,0.0,-0.0,-0.0,1726473664.9083052,-0.0054038694830861895,-1.5640530285625152,0.5126152996772384
53.67695999145508,0.0,0.0,-0.4399999976158142,0.25,0.0,0.0,0.0,-0.0,-0.0,1726473664.9183707,-0.005397304533533472,-1.5640464083459038,0.5126009462790383
53.67695999145508,0.0,0.0,-0.4399999976158142,0.25,0.0,0.0,0.0,-0.0,-0.0,1726473664.928304,-0.005396600605950594,-1.5640242333988286,0.5129649019931992
53.67695999145508,0.0,0.0,-0.4399999976158142,0.25,0.0,0.0,0.0,-0.0,-0.0,1726473664.9381332,-0.005412608958283579,-1.5640181613356348,0.5128336652745269
53.67695999145508,0.0,0.0,-0.4399999976158142,0.25,0.0,0.0,0.0,-0.0,-0.0,1726473664.9484909,-0.005441268752734061,-1.564007278742225,0.5129708222283607
53.67695999145508,0.0,0.0,-0.4399999976158142,0.25,0.0,0.0,0.0,-0.0,-0.0,1726473664.9587183,-0.005428189578634926,-1.5640143746016617,0.5128067475331097
53.67695999145508,0.0,0.0,-0.4399999976158142,0.25,0.0,0.0,0.0,-0.0,-0.0,1726473664.968312,-0.005433735197497211,-1.5640435459149868,0.5126881744407087
53.777156829833984,0.0,0.0,-0.3799999952316284,0.27000001072883606,0.002181661082431674,0.0,0.0,-0.0,-0.0,1726473664.9783394,-0.005411329280060589,-1.5640540314836058,0.5124974296347256
53.777156829833984,0.0,0.0,-0.3799999952316284,0.27000001072883606,0.002181661082431674,0.0,0.0,-0.0,-0.0,1726473664.9883828,-0.0053965943066179405,-1.5640498117977568,0.5126152737827159
53.777156829833984,0.0,0.0,-0.3799999952316284,0.27000001072883606,0.002181661082431674,0.0,0.0,-0.0,-0.0,1726473664.9981682,-0.005393271961445106,-1.5640490354581706,0.5127656208541098
53.777156829833984,0.0,0.0,-0.3799999952316284,0.27000001072883606,0.002181661082431674,0.0,0.0,-0.0,-0.0,1726473665.0082147,-0.0054115652953814234,-1.5640300763435118,0.5128998413488625
53.777156829833984,0.0,0.0,-0.3799999952316284,0.27000001072883606,0.002181661082431674,0.0,0.0,-0.0,-0.0,1726473665.0180993,-0.005419623080683425,-1.564010168754894,0.5130584398388631
53.777156829833984,0.0,0.0,-0.3799999952316284,0.27000001072883606,0.002181661082431674,0.0,0.0,-0.0,-0.0,1726473665.0281076,-0.005446342034642976,-1.564026722348696,0.5128025221905455
53.777156829833984,0.0,0.0,-0.3799999952316284,0.27000001072883606,0.002181661082431674,0.0,0.0,-0.0,-0.0,1726473665.038443,-0.005433181744950002,-1.5640291649395601,0.5127005892714575
53.777156829833984,0.0,0.0,-0.3799999952316284,0.27000001072883606,0.002181661082431674,0.0,0.0,-0.0,-0.0,1726473665.048461,-0.005408459605567255,-1.564047564019401,0.5128881382482426
53.777156829833984,0.0,0.0,-0.3799999952316284,0.27000001072883606,0.002181661082431674,0.0,0.0,-0.0,-0.0,1726473665.0585117,-0.005378077760348539,-1.5640675316496888,0.5126565072734194
53.777156829833984,0.0,0.0,-0.3799999952316284,0.27000001072883606,0.002181661082431674,0.0,0.0,-0.0,-0.0,1726473665.0684152,-0.0053823629221304795,-1.5640619018518227,0.5125746454473337
53.877254486083984,0.0,0.0,-0.4000000059604645,0.25999999046325684,0.0,0.0,0.0,-0.0,-0.0,1726473665.0784242,-0.005401889749520416,-1.564045573524358,0.5126290689614589
53.877254486083984,0.0,0.0,-0.4000000059604645,0.25999999046325684,0.0,0.0,0.0,-0.0,-0.0,1726473665.0882277,-0.005428175490830608,-1.5640263286488523,0.5128880461461212
53.877254486083984,0.0,0.0,-0.4000000059604645,0.25999999046325684,0.0,0.0,0.0,-0.0,-0.0,1726473665.0984025,-0.005434614751200368,-1.5640246049244748,0.5129136948538199
53.877254486083984,0.0,0.0,-0.4000000059604645,0.25999999046325684,0.0,0.0,0.0,-0.0,-0.0,1726473665.1084476,-0.0054380607374824655,-1.5640213153704539,0.5128795742450136
53.877254486083984,0.0,0.0,-0.4000000059604645,0.25999999046325684,0.0,0.0,0.0,-0.0,-0.0,1726473665.1184137,-0.005419027380563114,-1.5640300282920516,0.5127498117276412
53.877254486083984,0.0,0.0,-0.4000000059604645,0.25999999046325684,0.0,0.0,0.0,-0.0,-0.0,1726473665.128425,-0.005406365284781798,-1.5640445957711708,0.5127233999377298
53.877254486083984,0.0,0.0,-0.4000000059604645,0.25999999046325684,0.0,0.0,0.0,-0.0,-0.0,1726473665.138365,-0.005385965719130367,-1.564058788552482,0.5125851570541766
53.877254486083984,0.0,0.0,-0.4000000059604645,0.25999999046325684,0.0,0.0,0.0,-0.0,-0.0,1726473665.1481817,-0.005392419512801224,-1.5640590970687183,0.5125608642232367
53.877254486083984,0.0,0.0,-0.4000000059604645,0.25999999046325684,0.0,0.0,0.0,-0.0,-0.0,1726473665.1584125,-0.0054173871384181815,-1.5640478399943272,0.5127771758397073
53.877254486083984,0.0,0.0,-0.4000000059604645,0.25999999046325684,0.0,0.0,0.0,-0.0,-0.0,1726473665.1683373,-0.005443462860673768,-1.5640283218872522,0.5128312404911795
53.976890563964844,0.0,0.0,-0.41999998688697815,0.25,0.002181661082431674,0.0,0.0,-0.0,-0.0,1726473665.1783085,-0.005428004152445089,-1.5640230655564982,0.5127954366036572
53.976890563964844,0.0,0.0,-0.41999998688697815,0.25,0.002181661082431674,0.0,0.0,-0.0,-0.0,1726473665.1883867,-0.0054182243882199286,-1.5640161442537899,0.5129823618336637
53.976890563964844,0.0,0.0,-0.41999998688697815,0.25,0.002181661082431674,0.0,0.0,-0.0,-0.0,1726473665.1983774,-0.005407227859213902,-1.5640402960047581,0.5129035636330483
53.976890563964844,0.0,0.0,-0.41999998688697815,0.25,0.002181661082431674,0.0,0.0,-0.0,-0.0,1726473665.2084122,-0.005410021135694252,-1.5640493122264596,0.5127837971551779
53.976890563964844,0.0,0.0,-0.41999998688697815,0.25,0.002181661082431674,0.0,0.0,-0.0,-0.0,1726473665.2182205,-0.005399550384137844,-1.564055673462014,0.5127160511157419
53.976890563964844,0.0,0.0,-0.41999998688697815,0.25,0.002181661082431674,0.0,0.0,-0.0,-0.0,1726473665.2281919,-0.005417133188792676,-1.5640453831736647,0.5126151836522633
53.976890563964844,0.0,0.0,-0.41999998688697815,0.25,0.002181661082431674,0.0,0.0,-0.0,-0.0,1726473665.2382073,-0.0054268768013989235,-1.5640356058306126,0.5128012686518865
53.976890563964844,0.0,0.0,-0.41999998688697815,0.25,0.002181661082431674,0.0,0.0,-0.0,-0.0,1726473665.2484164,-0.005438088689997527,-1.5640209239582292,0.5127388245055938
53.976890563964844,0.0,0.0,-0.41999998688697815,0.25,0.002181661082431674,0.0,0.0,-0.0,-0.0,1726473665.2582002,-0.005421962373204809,-1.5640262353133698,0.5129248214189388
54.073570251464844,0.0,0.0,-0.36000001430511475,0.28999999165534973,0.002181661082431674,0.0,0.0,-0.0,-0.0,1726473665.2684894,-0.005412279486076611,-1.564022381486847,0.5128720217658559
54.073570251464844,0.0,0.0,-0.36000001430511475,0.28999999165534973,0.002181661082431674,0.0,0.0,-0.0,-0.0,1726473665.278267,-0.0053938679994813615,-1.5640333510071063,0.5127191619742001
54.073570251464844,0.0,0.0,-0.36000001430511475,0.28999999165534973,0.002181661082431674,0.0,0.0,-0.0,-0.0,1726473665.288216,-0.005393326292512657,-1.5640462745227104,0.5128270737220954
54.073570251464844,0.0,0.0,-0.36000001430511475,0.28999999165534973,0.002181661082431674,0.0,0.0,-0.0,-0.0,1726473665.2983582,-0.0053918314803433195,-1.5640509271279366,0.5127072757604991
54.073570251464844,0.0,0.0,-0.36000001430511475,0.28999999165534973,0.002181661082431674,0.0,0.0,-0.0,-0.0,1726473665.3081443,-0.005417140858266922,-1.5640310899313032,0.5127839502850386
54.073570251464844,0.0,0.0,-0.36000001430511475,0.28999999165534973,0.002181661082431674,0.0,0.0,-0.0,-0.0,1726473665.3178008,-0.005431742663124612,-1.5640324121540297,0.5126356210316455
54.073570251464844,0.0,0.0,-0.36000001430511475,0.28999999165534973,0.002181661082431674,0.0,0.0,-0.0,-0.0,1726473665.3281918,-0.005440604666757783,-1.5640257359248437,0.5127814663293071
54.073570251464844,0.0,0.0,-0.36000001430511475,0.28999999165534973,0.002181661082431674,0.0,0.0,-0.0,-0.0,1726473665.3379397,-0.005415242925989266,-1.564028426726183,0.5128783846786963
54.073570251464844,0.0,0.0,-0.36000001430511475,0.28999999165534973,0.002181661082431674,0.0,0.0,-0.0,-0.0,1726473665.3479335,-0.005414654650140275,-1.5640171509895855,0.5129342150250052
54.073570251464844,0.0,0.0,-0.36000001430511475,0.28999999165534973,0.002181661082431674,0.0,0.0,-0.0,-0.0,1726473665.357913,-0.005408162965548795,-1.5640323053722394,0.5127044795396098
54.073570251464844,0.0,0.0,-0.36000001430511475,0.28999999165534973,0.002181661082431674,0.0,0.0,-0.0,-0.0,1726473665.36776,-0.00540926530958067,-1.5640416996967341,0.512705336536121
54.17583084106445,0.0,0.0,-0.3799999952316284,0.28999999165534973,0.0,0.0,0.0,-0.0,-0.0,1726473665.3779104,-0.005411629895611774,-1.5640291789280067,0.5127967881796708
54.17583084106445,0.0,0.0,-0.3799999952316284,0.28999999165534973,0.0,0.0,0.0,-0.0,-0.0,1726473665.3879905,-0.0054188423209734415,-1.5640386938045028,0.5128341240069229
54.17583084106445,0.0,0.0,-0.3799999952316284,0.28999999165534973,0.0,0.0,0.0,-0.0,-0.0,1726473665.3980029,-0.005428103304566277,-1.5640326295256584,0.5127729305912752
54.17583084106445,0.0,0.0,-0.3799999952316284,0.28999999165534973,0.0,0.0,0.0,-0.0,-0.0,1726473665.4079082,-0.005420912787676398,-1.5640267575148001,0.5130000222373573
54.17583084106445,0.0,0.0,-0.3799999952316284,0.28999999165534973,0.0,0.0,0.0,-0.0,-0.0,1726473665.4179904,-0.00541426341611718,-1.5640236547844428,0.512748961414152
54.17583084106445,0.0,0.0,-0.3799999952316284,0.28999999165534973,0.0,0.0,0.0,-0.0,-0.0,1726473665.4279757,-0.00540779115098013,-1.5640330157104139,0.512858515163024
54.17583084106445,0.0,0.0,-0.3799999952316284,0.28999999165534973,0.0,0.0,0.0,-0.0,-0.0,1726473665.4379783,-0.005404219946570877,-1.5640368523338437,0.5128737978905399
54.17583084106445,0.0,0.0,-0.3799999952316284,0.28999999165534973,0.0,0.0,0.0,-0.0,-0.0,1726473665.4480648,-0.005422069701714368,-1.5640323275776191,0.5127179651289144
54.17583084106445,0.0,0.0,-0.3799999952316284,0.28999999165534973,0.0,0.0,0.0,-0.0,-0.0,1726473665.4578085,-0.0054316120879355015,-1.5640298073921384,0.5126686331856943
54.17583084106445,0.0,0.0,-0.3799999952316284,0.28999999165534973,0.0,0.0,0.0,-0.0,-0.0,1726473665.4680004,-0.005432911758229207,-1.5640353046355313,0.5127613919135942
54.27328872680664,0.0,0.0,-0.4000000059604645,0.25,0.001090830541215837,0.0,0.0,-0.0,-0.0,1726473665.4779599,-0.005427312922348908,-1.5640166021985238,0.5127212679269013
54.27328872680664,0.0,0.0,-0.4000000059604645,0.25,0.001090830541215837,0.0,0.0,-0.0,-0.0,1726473665.4879873,-0.0054278167765156645,-1.564028609361916,0.5128756735356127
54.27328872680664,0.0,0.0,-0.4000000059604645,0.25,0.001090830541215837,0.0,0.0,-0.0,-0.0,1726473665.497913,-0.005416940970174347,-1.5640291038876875,0.5129558241729728
54.27328872680664,0.0,0.0,-0.4000000059604645,0.25,0.001090830541215837,0.0,0.0,-0.0,-0.0,1726473665.507937,-0.00541680446159422,-1.564044920548601,0.5126914553508168
54.27328872680664,0.0,0.0,-0.4000000059604645,0.25,0.001090830541215837,0.0,0.0,-0.0,-0.0,1726473665.5183198,-0.005403133665336609,-1.5640516871236736,0.512788511918451
54.27328872680664,0.0,0.0,-0.4000000059604645,0.25,0.001090830541215837,0.0,0.0,-0.0,-0.0,1726473665.5279546,-0.005411176858842437,-1.564035712720975,0.5128414174718362
54.27328872680664,0.0,0.0,-0.4000000059604645,0.25,0.001090830541215837,0.0,0.0,-0.0,-0.0,1726473665.538607,-0.0054100732874156725,-1.5640351325781918,0.5127755429605099
54.27328872680664,0.0,0.0,-0.4000000059604645,0.25,0.001090830541215837,0.0,0.0,-0.0,-0.0,1726473665.5485628,-0.005422256434875818,-1.5640200403744409,0.5128521978570922
54.27328872680664,0.0,0.0,-0.4000000059604645,0.25,0.001090830541215837,0.0,0.0,-0.0,-0.0,1726473665.5585968,-0.005428371781988528,-1.564023071959704,0.5128473842139215
54.27328872680664,0.0,0.0,-0.4000000059604645,0.25,0.001090830541215837,0.0,0.0,-0.0,-0.0,1726473665.568156,-0.005425304043808455,-1.5640335464744444,0.5128684720838473
54.373443603515625,0.0,0.0,-0.4300000071525574,0.2199999988079071,0.0,0.0,0.0,-0.0,-0.0,1726473665.5786119,-0.005426919595265787,-1.5640281677942731,0.5128254129386771
54.373443603515625,0.0,0.0,-0.4300000071525574,0.2199999988079071,0.0,0.0,0.0,-0.0,-0.0,1726473665.5884843,-0.005410449848068741,-1.5640312344215135,0.5129295123453501
54.373443603515625,0.0,0.0,-0.4300000071525574,0.2199999988079071,0.0,0.0,0.0,-0.0,-0.0,1726473665.598471,-0.005403679235596884,-1.56402988643618,0.512933339333249
54.373443603515625,0.0,0.0,-0.4300000071525574,0.2199999988079071,0.0,0.0,0.0,-0.0,-0.0,1726473665.6082647,-0.005410306186155288,-1.5640492999385749,0.5127112636089639
54.373443603515625,0.0,0.0,-0.4300000071525574,0.2199999988079071,0.0,0.0,0.0,-0.0,-0.0,1726473665.6182196,-0.005427343880898771,-1.5640486372321816,0.5127254919964529
54.373443603515625,0.0,0.0,-0.4300000071525574,0.2199999988079071,0.0,0.0,0.0,-0.0,-0.0,1726473665.6281815,-0.005444672616524637,-1.5640437920641312,0.5126746881284834
54.373443603515625,0.0,0.0,-0.4300000071525574,0.2199999988079071,0.0,0.0,0.0,-0.0,-0.0,1726473665.6385264,-0.005433260656846412,-1.564025827877034,0.5127603266871148
54.373443603515625,0.0,0.0,-0.4300000071525574,0.2199999988079071,0.0,0.0,0.0,-0.0,-0.0,1726473665.6484187,-0.0054041703843619796,-1.5640232563792014,0.5129788537903973
54.373443603515625,0.0,0.0,-0.4300000071525574,0.2199999988079071,0.0,0.0,0.0,-0.0,-0.0,1726473665.658461,-0.005396725161213533,-1.564027668817191,0.5129234092305225
54.373443603515625,0.0,0.0,-0.4300000071525574,0.2199999988079071,0.0,0.0,0.0,-0.0,-0.0,1726473665.6684391,-0.005396945877939851,-1.5640324499289646,0.5128386602122448
54.47332000732422,0.0,0.0,-0.3799999952316284,0.27000001072883606,0.0,0.0,0.0,-0.0,-0.0,1726473665.6784055,-0.005412762910460535,-1.56404150894688,0.512841889878966
54.47332000732422,0.0,0.0,-0.3799999952316284,0.27000001072883606,0.0,0.0,0.0,-0.0,-0.0,1726473665.688249,-0.00543752713703762,-1.5640341808128453,0.5125867654658193
54.47332000732422,0.0,0.0,-0.3799999952316284,0.27000001072883606,0.0,0.0,0.0,-0.0,-0.0,1726473665.6984,-0.005433949569373086,-1.5640429069547663,0.512613295761
54.47332000732422,0.0,0.0,-0.3799999952316284,0.27000001072883606,0.0,0.0,0.0,-0.0,-0.0,1726473665.7082474,-0.005424225783660733,-1.5640285150515507,0.5125564110901434
54.47332000732422,0.0,0.0,-0.3799999952316284,0.27000001072883606,0.0,0.0,0.0,-0.0,-0.0,1726473665.7183113,-0.005411795590857229,-1.5640246897103582,0.5127594630827582
54.47332000732422,0.0,0.0,-0.3799999952316284,0.27000001072883606,0.0,0.0,0.0,-0.0,-0.0,1726473665.7284575,-0.005405407289758325,-1.5640334200586345,0.5129042483682831
54.47332000732422,0.0,0.0,-0.3799999952316284,0.27000001072883606,0.0,0.0,0.0,-0.0,-0.0,1726473665.7381594,-0.005408051958274968,-1.5640370762984799,0.512803408905329
54.47332000732422,0.0,0.0,-0.3799999952316284,0.27000001072883606,0.0,0.0,0.0,-0.0,-0.0,1726473665.7485366,-0.005409596647823398,-1.564022719566981,0.512715303034487
54.47332000732422,0.0,0.0,-0.3799999952316284,0.27000001072883606,0.0,0.0,0.0,-0.0,-0.0,1726473665.7586803,-0.005421622185261238,-1.5640336135578357,0.5129078655607897
54.47332000732422,0.0,0.0,-0.3799999952316284,0.27000001072883606,0.0,0.0,0.0,-0.0,-0.0,1726473665.7682345,-0.0054306936981587915,-1.5640324667431462,0.5127153580943682
54.57324981689453,0.0,0.0,-0.4300000071525574,0.23000000417232513,-0.001090830541215837,0.0,0.0,-0.0,-0.0,1726473665.7785008,-0.0054237062869991965,-1.5640334442823665,0.5127088611841001
54.57324981689453,0.0,0.0,-0.4300000071525574,0.23000000417232513,-0.001090830541215837,0.0,0.0,-0.0,-0.0,1726473665.7884774,-0.005424906356889686,-1.564043676697911,0.5126986793543322
54.57324981689453,0.0,0.0,-0.4300000071525574,0.23000000417232513,-0.001090830541215837,0.0,0.0,-0.0,-0.0,1726473665.798446,-0.00541745189283991,-1.5640339277997695,0.5128755047039798
54.57324981689453,0.0,0.0,-0.4300000071525574,0.23000000417232513,-0.001090830541215837,0.0,0.0,-0.0,-0.0,1726473665.808368,-0.005414994494569109,-1.5640278374563934,0.5129327235474831
54.57324981689453,0.0,0.0,-0.4300000071525574,0.23000000417232513,-0.001090830541215837,0.0,0.0,-0.0,-0.0,1726473665.818159,-0.005411499250556764,-1.5640250604142822,0.5129982257645801
54.57324981689453,0.0,0.0,-0.4300000071525574,0.23000000417232513,-0.001090830541215837,0.0,0.0,-0.0,-0.0,1726473665.8282325,-0.005419613618949706,-1.564022436853361,0.5128486530095154
54.57324981689453,0.0,0.0,-0.4300000071525574,0.23000000417232513,-0.001090830541215837,0.0,0.0,-0.0,-0.0,1726473665.8382597,-0.005429518781850323,-1.5640145902607057,0.5127793497079826
54.57324981689453,0.0,0.0,-0.4300000071525574,0.23000000417232513,-0.001090830541215837,0.0,0.0,-0.0,-0.0,1726473665.848452,-0.005440124093448069,-1.5640457064647701,0.5126818810654232
54.57324981689453,0.0,0.0,-0.4300000071525574,0.23000000417232513,-0.001090830541215837,0.0,0.0,-0.0,-0.0,1726473665.8587353,-0.005442796520866741,-1.564032564679935,0.5126863548279926
54.57324981689453,0.0,0.0,-0.4300000071525574,0.23000000417232513,-0.001090830541215837,0.0,0.0,-0.0,-0.0,1726473665.8682814,-0.0054243133965811725,-1.5640447463032132,0.512619102237526
54.67343521118164,0.0,0.0,-0.3499999940395355,0.25,-0.001090830541215837,0.0,0.0,-0.0,-0.0,1726473665.8782754,-0.005414997766841704,-1.5640224940025624,0.5128882202288062
54.67343521118164,0.0,0.0,-0.3499999940395355,0.25,-0.001090830541215837,0.0,0.0,-0.0,-0.0,1726473665.8881764,-0.005401004148838924,-1.564023481600915,0.5128441412074631
54.67343521118164,0.0,0.0,-0.3499999940395355,0.25,-0.001090830541215837,0.0,0.0,-0.0,-0.0,1726473665.8981774,-0.005416724833390548,-1.5640293154676028,0.512865480181182
54.67343521118164,0.0,0.0,-0.3499999940395355,0.25,-0.001090830541215837,0.0,0.0,-0.0,-0.0,1726473665.908263,-0.005425082705918052,-1.5640315296692628,0.5127407524312916
54.67343521118164,0.0,0.0,-0.3499999940395355,0.25,-0.001090830541215837,0.0,0.0,-0.0,-0.0,1726473665.91816,-0.005432050803398625,-1.564030858118306,0.5127859755819516
54.67343521118164,0.0,0.0,-0.3499999940395355,0.25,-0.001090830541215837,0.0,0.0,-0.0,-0.0,1726473665.9286444,-0.005424689283949216,-1.5640258901412136,0.5127239037818672
54.67343521118164,0.0,0.0,-0.3499999940395355,0.25,-0.001090830541215837,0.0,0.0,-0.0,-0.0,1726473665.9381616,-0.005430068313004425,-1.5640281427748608,0.5127815574726104
54.67343521118164,0.0,0.0,-0.3499999940395355,0.25,-0.001090830541215837,0.0,0.0,-0.0,-0.0,1726473665.9485075,-0.00542822362638991,-1.564022360240354,0.5128391954724982
54.67343521118164,0.0,0.0,-0.3499999940395355,0.25,-0.001090830541215837,0.0,0.0,-0.0,-0.0,1726473665.9582148,-0.0054208206350540925,-1.5640321791175955,0.5128890111954093
54.67343521118164,0.0,0.0,-0.3499999940395355,0.25,-0.001090830541215837,0.0,0.0,-0.0,-0.0,1726473665.9681656,-0.005422151175731202,-1.5640344404684645,0.5128394405354816
54.77287673950195,0.0,0.0,-0.4399999976158142,0.23000000417232513,0.001090830541215837,0.0,0.0,-0.0,-0.0,1726473665.9781396,-0.00541497771943884,-1.5640253718977386,0.5126583730863734
54.77287673950195,0.0,0.0,-0.4399999976158142,0.23000000417232513,0.001090830541215837,0.0,0.0,-0.0,-0.0,1726473665.9884334,-0.005413411960104497,-1.5640282292297023,0.5127749596988695
54.77287673950195,0.0,0.0,-0.4399999976158142,0.23000000417232513,0.001090830541215837,0.0,0.0,-0.0,-0.0,1726473665.9980729,-0.0054077633324936866,-1.5640187093796925,0.5128023472395744
54.77287673950195,0.0,0.0,-0.4399999976158142,0.23000000417232513,0.001090830541215837,0.0,0.0,-0.0,-0.0,1726473666.0081422,-0.005414238668374283,-1.5640247787185704,0.5127995243033834
54.77287673950195,0.0,0.0,-0.4399999976158142,0.23000000417232513,0.001090830541215837,0.0,0.0,-0.0,-0.0,1726473666.018148,-0.005420590797853535,-1.5640327530152867,0.5127040786129627
54.77287673950195,0.0,0.0,-0.4399999976158142,0.23000000417232513,0.001090830541215837,0.0,0.0,-0.0,-0.0,1726473666.027992,-0.005410023312938014,-1.5640215039658203,0.5127787386453164
54.77287673950195,0.0,0.0,-0.4399999976158142,0.23000000417232513,0.001090830541215837,0.0,0.0,-0.0,-0.0,1726473666.038194,-0.005417873337536815,-1.564034828551358,0.512850235893302
54.77287673950195,0.0,0.0,-0.4399999976158142,0.23000000417232513,0.001090830541215837,0.0,0.0,-0.0,-0.0,1726473666.0479732,-0.00541620131706363,-1.564023118630207,0.5127888039399089
54.77287673950195,0.0,0.0,-0.4399999976158142,0.23000000417232513,0.001090830541215837,0.0,0.0,-0.0,-0.0,1726473666.0576854,-0.005422997824806224,-1.564019083507402,0.5128871144274098
54.77287673950195,0.0,0.0,-0.4399999976158142,0.23000000417232513,0.001090830541215837,0.0,0.0,-0.0,-0.0,1726473666.067575,-0.005430623970672791,-1.5640364452164397,0.5127872796095413
54.87257385253906,0.0,0.0,-0.36000001430511475,0.27000001072883606,0.001090830541215837,0.0,0.0,-0.0,-0.0,1726473666.0772548,-0.0054262821680534845,-1.564034560637044,0.512826796806415
54.87257385253906,0.0,0.0,-0.36000001430511475,0.27000001072883606,0.001090830541215837,0.0,0.0,-0.0,-0.0,1726473666.0878818,-0.0054305243409956475,-1.5640359951947507,0.5127621256125088
54.87257385253906,0.0,0.0,-0.36000001430511475,0.27000001072883606,0.001090830541215837,0.0,0.0,-0.0,-0.0,1726473666.0978873,-0.005418854081155951,-1.564028493660149,0.5127047925225787
54.87257385253906,0.0,0.0,-0.36000001430511475,0.27000001072883606,0.001090830541215837,0.0,0.0,-0.0,-0.0,1726473666.107844,-0.005416611347977077,-1.5640320355689805,0.5126974186945356
54.87257385253906,0.0,0.0,-0.36000001430511475,0.27000001072883606,0.001090830541215837,0.0,0.0,-0.0,-0.0,1726473666.1179388,-0.005425477290887162,-1.5640349895334271,0.5129429380721661
54.87257385253906,0.0,0.0,-0.36000001430511475,0.27000001072883606,0.001090830541215837,0.0,0.0,-0.0,-0.0,1726473666.1281824,-0.005430742372442727,-1.5640306865966047,0.512823310475514
54.87257385253906,0.0,0.0,-0.36000001430511475,0.27000001072883606,0.001090830541215837,0.0,0.0,-0.0,-0.0,1726473666.1381776,-0.005432843856092754,-1.5640255564948427,0.5128054245820984
54.87257385253906,0.0,0.0,-0.36000001430511475,0.27000001072883606,0.001090830541215837,0.0,0.0,-0.0,-0.0,1726473666.148197,-0.005421150624335259,-1.5640312206657214,0.5130365220512368
54.87257385253906,0.0,0.0,-0.36000001430511475,0.27000001072883606,0.001090830541215837,0.0,0.0,-0.0,-0.0,1726473666.1585789,-0.005409863197389513,-1.5640368756550578,0.5126455028757125
54.87257385253906,0.0,0.0,-0.36000001430511475,0.27000001072883606,0.001090830541215837,0.0,0.0,-0.0,-0.0,1726473666.1680362,-0.005415272148891595,-1.564041578516683,0.5126795557126674
54.97303009033203,0.0,0.0,-0.41999998688697815,0.23999999463558197,0.0032724919728934765,0.0,0.0,-0.0,-0.0,1726473666.1781979,-0.005416733910242288,-1.5640502260823042,0.5126487821482844
54.97303009033203,0.0,0.0,-0.41999998688697815,0.23999999463558197,0.0032724919728934765,0.0,0.0,-0.0,-0.0,1726473666.188447,-0.0054141466207947644,-1.5640468376583874,0.5127832704345545
54.97303009033203,0.0,0.0,-0.41999998688697815,0.23999999463558197,0.0032724919728934765,0.0,0.0,-0.0,-0.0,1726473666.1983862,-0.005428525183287944,-1.564026267169859,0.5127106534513346
54.97303009033203,0.0,0.0,-0.41999998688697815,0.23999999463558197,0.0032724919728934765,0.0,0.0,-0.0,-0.0,1726473666.2083306,-0.005408998107561277,-1.5640270717298086,0.5129188387613285
54.97303009033203,0.0,0.0,-0.41999998688697815,0.23999999463558197,0.0032724919728934765,0.0,0.0,-0.0,-0.0,1726473666.218237,-0.005426252845747154,-1.564026056533717,0.5128578475640772
54.97303009033203,0.0,0.0,-0.41999998688697815,0.23999999463558197,0.0032724919728934765,0.0,0.0,-0.0,-0.0,1726473666.228265,-0.0054192182054548866,-1.5640359128601384,0.512783712062591
54.97303009033203,0.0,0.0,-0.41999998688697815,0.23999999463558197,0.0032724919728934765,0.0,0.0,-0.0,-0.0,1726473666.23885,-0.0054058093021418134,-1.5640404874733433,0.5127706713031034
54.97303009033203,0.0,0.0,-0.41999998688697815,0.23999999463558197,0.0032724919728934765,0.0,0.0,-0.0,-0.0,1726473666.2483773,-0.005394541740867206,-1.564044264061546,0.5127792230396209
54.97303009033203,0.0,0.0,-0.41999998688697815,0.23999999463558197,0.0032724919728934765,0.0,0.0,-0.0,-0.0,1726473666.258057,-0.005410020725417906,-1.5640361947262849,0.512776224400346
55.072566986083984,0.0,0.0,-0.4300000071525574,0.25,-0.001090830541215837,0.0,0.0,-0.0,-0.0,1726473666.267938,-0.005409653547994324,-1.5640358187119183,0.5127724974223099
55.072566986083984,0.0,0.0,-0.4300000071525574,0.25,-0.001090830541215837,0.0,0.0,-0.0,-0.0,1726473666.27744,-0.005411689914648555,-1.5640391911047056,0.5128339947747294
55.072566986083984,0.0,0.0,-0.4300000071525574,0.25,-0.001090830541215837,0.0,0.0,-0.0,-0.0,1726473666.2873366,-0.00541853449150675,-1.5640355353030098,0.5129278195770457
55.072566986083984,0.0,0.0,-0.4300000071525574,0.25,-0.001090830541215837,0.0,0.0,-0.0,-0.0,1726473666.297899,-0.005419937909325309,-1.5640325602742793,0.5129504832249596
55.072566986083984,0.0,0.0,-0.4300000071525574,0.25,-0.001090830541215837,0.0,0.0,-0.0,-0.0,1726473666.307756,-0.005394522222194577,-1.5640366253590328,0.5128036714817584
55.072566986083984,0.0,0.0,-0.4300000071525574,0.25,-0.001090830541215837,0.0,0.0,-0.0,-0.0,1726473666.317869,-0.005400483914962965,-1.564049955386508,0.5128436976833568
55.072566986083984,0.0,0.0,-0.4300000071525574,0.25,-0.001090830541215837,0.0,0.0,-0.0,-0.0,1726473666.3279893,-0.0054150729022008105,-1.5640529557128404,0.5125740668581693
55.072566986083984,0.0,0.0,-0.4300000071525574,0.25,-0.001090830541215837,0.0,0.0,-0.0,-0.0,1726473666.3378615,-0.005409926379468178,-1.564039343900712,0.5127725212220654
55.072566986083984,0.0,0.0,-0.4300000071525574,0.25,-0.001090830541215837,0.0,0.0,-0.0,-0.0,1726473666.3480518,-0.005418528238002901,-1.5640458718182804,0.5128137982478577
55.072566986083984,0.0,0.0,-0.4300000071525574,0.25,-0.001090830541215837,0.0,0.0,-0.0,-0.0,1726473666.3577595,-0.0054219024088056214,-1.5640382515464628,0.5128433991622111
55.072566986083984,0.0,0.0,-0.4300000071525574,0.25,-0.001090830541215837,0.0,0.0,-0.0,-0.0,1726473666.3677628,-0.005423459231766336,-1.5640255420022517,0.5128027949571001
55.17288589477539,0.0,0.0,-0.4300000071525574,0.2199999988079071,0.0032724919728934765,0.0,0.0,-0.0,-0.0,1726473666.3780773,-0.0054030499928929875,-1.5640325556666586,0.5130484751209852
55.17288589477539,0.0,0.0,-0.4300000071525574,0.2199999988079071,0.0032724919728934765,0.0,0.0,-0.0,-0.0,1726473666.388014,-0.0054084024457146515,-1.5640418745981008,0.5128282107534784
55.17288589477539,0.0,0.0,-0.4300000071525574,0.2199999988079071,0.0032724919728934765,0.0,0.0,-0.0,-0.0,1726473666.3978252,-0.005406956440196927,-1.5640519708324379,0.5126416039774443
55.17288589477539,0.0,0.0,-0.4300000071525574,0.2199999988079071,0.0032724919728934765,0.0,0.0,-0.0,-0.0,1726473666.407925,-0.00542080723982789,-1.564050703322981,0.512687896066367
55.17288589477539,0.0,0.0,-0.4300000071525574,0.2199999988079071,0.0032724919728934765,0.0,0.0,-0.0,-0.0,1726473666.417878,-0.005414125076202562,-1.5640459699266998,0.5127491594370491
55.17288589477539,0.0,0.0,-0.4300000071525574,0.2199999988079071,0.0032724919728934765,0.0,0.0,-0.0,-0.0,1726473666.4278808,-0.00541700959447216,-1.5640280325467402,0.5128020140073181
55.17288589477539,0.0,0.0,-0.4300000071525574,0.2199999988079071,0.0032724919728934765,0.0,0.0,-0.0,-0.0,1726473666.438141,-0.00542526514788602,-1.5640312002040957,0.5128282240295186
55.17288589477539,0.0,0.0,-0.4300000071525574,0.2199999988079071,0.0032724919728934765,0.0,0.0,-0.0,-0.0,1726473666.4479682,-0.00542365344556257,-1.5640251086746677,0.5128737708230454
55.17288589477539,0.0,0.0,-0.4300000071525574,0.2199999988079071,0.0032724919728934765,0.0,0.0,-0.0,-0.0,1726473666.45783,-0.005417014843184012,-1.5640291009701814,0.5127406477068948
55.27154541015625,0.0,0.0,-0.3700000047683716,0.27000001072883606,0.0,0.0,0.0,-0.0,-0.0,1726473666.4678807,-0.005410438801016244,-1.5640345092579317,0.512718086813089
55.27154541015625,0.0,0.0,-0.3700000047683716,0.27000001072883606,0.0,0.0,0.0,-0.0,-0.0,1726473666.4777148,-0.005427717461569311,-1.5640408876303002,0.5128306140142297
55.27154541015625,0.0,0.0,-0.3700000047683716,0.27000001072883606,0.0,0.0,0.0,-0.0,-0.0,1726473666.487818,-0.005416714270375424,-1.5640412236179306,0.5127273324629118
55.27154541015625,0.0,0.0,-0.3700000047683716,0.27000001072883606,0.0,0.0,0.0,-0.0,-0.0,1726473666.4979932,-0.005409719484157725,-1.5640268866572848,0.5128258519342989
55.27154541015625,0.0,0.0,-0.3700000047683716,0.27000001072883606,0.0,0.0,0.0,-0.0,-0.0,1726473666.5078027,-0.00543280011494579,-1.5640314551341907,0.5127485705666938
55.27154541015625,0.0,0.0,-0.3700000047683716,0.27000001072883606,0.0,0.0,0.0,-0.0,-0.0,1726473666.517451,-0.0054358854054600714,-1.564029230325031,0.5128513700878828
55.27154541015625,0.0,0.0,-0.3700000047683716,0.27000001072883606,0.0,0.0,0.0,-0.0,-0.0,1726473666.5283165,-0.00542609677414523,-1.5640334480527813,0.5127822226350751
55.27154541015625,0.0,0.0,-0.3700000047683716,0.27000001072883606,0.0,0.0,0.0,-0.0,-0.0,1726473666.538104,-0.005413569757387304,-1.5640401903720789,0.5127899930171023
55.27154541015625,0.0,0.0,-0.3700000047683716,0.27000001072883606,0.0,0.0,0.0,-0.0,-0.0,1726473666.547914,-0.005399269892398327,-1.5640347209729426,0.512776936469802
55.27154541015625,0.0,0.0,-0.3700000047683716,0.27000001072883606,0.0,0.0,0.0,-0.0,-0.0,1726473666.557481,-0.005413716431446959,-1.5640311740132673,0.5127011438471808
55.27154541015625,0.0,0.0,-0.3700000047683716,0.27000001072883606,0.0,0.0,0.0,-0.0,-0.0,1726473666.5675044,-0.005421006906336546,-1.5640381656883005,0.5128244295967899
55.37281036376953,0.0,0.0,-0.3799999952316284,0.23999999463558197,0.0,0.0,0.0,-0.0,-0.0,1726473666.57746,-0.005457951250615244,-1.5640246077527573,0.5128020417922063
55.37281036376953,0.0,0.0,-0.3799999952316284,0.23999999463558197,0.0,0.0,0.0,-0.0,-0.0,1726473666.5878248,-0.005458958494232202,-1.5640188989166794,0.5127535846878087
55.37281036376953,0.0,0.0,-0.3799999952316284,0.23999999463558197,0.0,0.0,0.0,-0.0,-0.0,1726473666.5972884,-0.0054408701514292,-1.5640263301181285,0.512847546365602
55.37281036376953,0.0,0.0,-0.3799999952316284,0.23999999463558197,0.0,0.0,0.0,-0.0,-0.0,1726473666.6073577,-0.005427079699609545,-1.5640288735406895,0.512835274005901
55.37281036376953,0.0,0.0,-0.3799999952316284,0.23999999463558197,0.0,0.0,0.0,-0.0,-0.0,1726473666.6173475,-0.005403998741101896,-1.5640375284492543,0.5127546294817726
55.37281036376953,0.0,0.0,-0.3799999952316284,0.23999999463558197,0.0,0.0,0.0,-0.0,-0.0,1726473666.6273935,-0.005407580084189673,-1.564042460477832,0.512869479854514
55.37281036376953,0.0,0.0,-0.3799999952316284,0.23999999463558197,0.0,0.0,0.0,-0.0,-0.0,1726473666.6379545,-0.0054225792606752855,-1.5640283156491621,0.5125890295286147
55.37281036376953,0.0,0.0,-0.3799999952316284,0.23999999463558197,0.0,0.0,0.0,-0.0,-0.0,1726473666.6476338,-0.005438476482664894,-1.564027737425244,0.5127792008653759
55.37281036376953,0.0,0.0,-0.3799999952316284,0.23999999463558197,0.0,0.0,0.0,-0.0,-0.0,1726473666.6574342,-0.005450886449247854,-1.5640174683052412,0.5126307001599545
55.47018051147461,0.0,0.0,-0.41999998688697815,0.25,0.001090830541215837,0.0,0.0,-0.0,-0.0,1726473666.6674023,-0.005436568435726925,-1.5640273131066302,0.5129535645431108
55.47018051147461,0.0,0.0,-0.41999998688697815,0.25,0.001090830541215837,0.0,0.0,-0.0,-0.0,1726473666.6774998,-0.005420395021493008,-1.564028130298963,0.5128562856599502
55.47018051147461,0.0,0.0,-0.41999998688697815,0.25,0.001090830541215837,0.0,0.0,-0.0,-0.0,1726473666.6879094,-0.005406918332193449,-1.5640314188812137,0.5126514386544765
55.47018051147461,0.0,0.0,-0.41999998688697815,0.25,0.001090830541215837,0.0,0.0,-0.0,-0.0,1726473666.697972,-0.0054066966312577595,-1.5640282263754797,0.5127648772824963
55.47018051147461,0.0,0.0,-0.41999998688697815,0.25,0.001090830541215837,0.0,0.0,-0.0,-0.0,1726473666.708051,-0.005428752352451579,-1.564041863383083,0.5129009806343723
55.47018051147461,0.0,0.0,-0.41999998688697815,0.25,0.001090830541215837,0.0,0.0,-0.0,-0.0,1726473666.7179558,-0.005428008134520018,-1.564036185005926,0.5126973047278116
55.47018051147461,0.0,0.0,-0.41999998688697815,0.25,0.001090830541215837,0.0,0.0,-0.0,-0.0,1726473666.7278814,-0.005426453942040467,-1.5640220618699716,0.5128088736275374
55.47018051147461,0.0,0.0,-0.41999998688697815,0.25,0.001090830541215837,0.0,0.0,-0.0,-0.0,1726473666.738182,-0.005418257778696144,-1.5640162495429752,0.5128656658694298
55.47018051147461,0.0,0.0,-0.41999998688697815,0.25,0.001090830541215837,0.0,0.0,-0.0,-0.0,1726473666.7480693,-0.005424680765879127,-1.5640282526880493,0.5128087389263022
55.47018051147461,0.0,0.0,-0.41999998688697815,0.25,0.001090830541215837,0.0,0.0,-0.0,-0.0,1726473666.7585702,-0.005419296556161429,-1.564025436452672,0.5127901047822943
55.57069778442383,0.0,0.0,-0.3700000047683716,0.28999999165534973,0.001090830541215837,0.0,0.0,-0.0,-0.0,1726473666.76812,-0.005422694043776785,-1.564037605693493,0.5127503618429461
55.57069778442383,0.0,0.0,-0.3700000047683716,0.28999999165534973,0.001090830541215837,0.0,0.0,-0.0,-0.0,1726473666.7787852,-0.005417928676121085,-1.564029801752242,0.5127317984894558
55.57069778442383,0.0,0.0,-0.3700000047683716,0.28999999165534973,0.001090830541215837,0.0,0.0,-0.0,-0.0,1726473666.7882524,-0.005420974379989542,-1.564042475710381,0.5127510933450163
55.57069778442383,0.0,0.0,-0.3700000047683716,0.28999999165534973,0.001090830541215837,0.0,0.0,-0.0,-0.0,1726473666.798434,-0.005416869109631596,-1.5640393242437567,0.5127697669862008
55.57069778442383,0.0,0.0,-0.3700000047683716,0.28999999165534973,0.001090830541215837,0.0,0.0,-0.0,-0.0,1726473666.808103,-0.005423796638657503,-1.564025261485375,0.5128146305125197
55.57069778442383,0.0,0.0,-0.3700000047683716,0.28999999165534973,0.001090830541215837,0.0,0.0,-0.0,-0.0,1726473666.8180532,-0.005421094375398412,-1.5640342206744378,0.5127095046909631
55.57069778442383,0.0,0.0,-0.3700000047683716,0.28999999165534973,0.001090830541215837,0.0,0.0,-0.0,-0.0,1726473666.8281865,-0.00542742169830005,-1.5640446948959048,0.5129065361699363
55.57069778442383,0.0,0.0,-0.3700000047683716,0.28999999165534973,0.001090830541215837,0.0,0.0,-0.0,-0.0,1726473666.838735,-0.0054191521092770475,-1.5640448676380125,0.5128252589978018
55.57069778442383,0.0,0.0,-0.3700000047683716,0.28999999165534973,0.001090830541215837,0.0,0.0,-0.0,-0.0,1726473666.8483818,-0.005414780823646601,-1.564034550879032,0.5128592123800224
55.57069778442383,0.0,0.0,-0.3700000047683716,0.28999999165534973,0.001090830541215837,0.0,0.0,-0.0,-0.0,1726473666.8583488,-0.005419541747626342,-1.5640329485478779,0.5128905687122569
55.66969680786133,0.0,0.0,-0.3700000047683716,0.2800000011920929,0.001090830541215837,0.0,0.0,-0.0,-0.0,1726473666.8681555,-0.005426079901804388,-1.5640514976194677,0.5127675164342965
55.66969680786133,0.0,0.0,-0.3700000047683716,0.2800000011920929,0.001090830541215837,0.0,0.0,-0.0,-0.0,1726473666.8782237,-0.005403256501688221,-1.5640499920556674,0.5127712900831602
55.66969680786133,0.0,0.0,-0.3700000047683716,0.2800000011920929,0.001090830541215837,0.0,0.0,-0.0,-0.0,1726473666.8882031,-0.00540844528785597,-1.5640573060062255,0.5128005793145743
55.66969680786133,0.0,0.0,-0.3700000047683716,0.2800000011920929,0.001090830541215837,0.0,0.0,-0.0,-0.0,1726473666.8980887,-0.005419299921561674,-1.5640424387833645,0.5126507170285161
55.66969680786133,0.0,0.0,-0.3700000047683716,0.2800000011920929,0.001090830541215837,0.0,0.0,-0.0,-0.0,1726473666.9083874,-0.00541571395915586,-1.5640366560311643,0.512791822717194
55.66969680786133,0.0,0.0,-0.3700000047683716,0.2800000011920929,0.001090830541215837,0.0,0.0,-0.0,-0.0,1726473666.9181225,-0.005418643628701977,-1.5640411518198252,0.5129798233162686
55.66969680786133,0.0,0.0,-0.3700000047683716,0.2800000011920929,0.001090830541215837,0.0,0.0,-0.0,-0.0,1726473666.928619,-0.005417085792635338,-1.5640263420541014,0.5129538031726274
55.66969680786133,0.0,0.0,-0.3700000047683716,0.2800000011920929,0.001090830541215837,0.0,0.0,-0.0,-0.0,1726473666.9383197,-0.0054142530045671496,-1.5640394021526371,0.5128040675388033
55.66969680786133,0.0,0.0,-0.3700000047683716,0.2800000011920929,0.001090830541215837,0.0,0.0,-0.0,-0.0,1726473666.948613,-0.005421432317538072,-1.5640471123796331,0.5128995709435038
55.66969680786133,0.0,0.0,-0.3700000047683716,0.2800000011920929,0.001090830541215837,0.0,0.0,-0.0,-0.0,1726473666.958298,-0.005409420794945831,-1.5640460406449412,0.5128455792820816
55.76996994018555,0.0,0.0,-0.3700000047683716,0.25999999046325684,-0.001090830541215837,0.0,0.0,-0.0,-0.0,1726473666.9681623,-0.005421104261734984,-1.5640476854527101,0.5129687516269708
55.76996994018555,0.0,0.0,-0.3700000047683716,0.25999999046325684,-0.001090830541215837,0.0,0.0,-0.0,-0.0,1726473666.9784286,-0.005402712356422989,-1.564034172263558,0.5126865576619527
55.76996994018555,0.0,0.0,-0.3700000047683716,0.25999999046325684,-0.001090830541215837,0.0,0.0,-0.0,-0.0,1726473666.9883378,-0.005411041669152925,-1.5640490508995388,0.5128948700300692
55.76996994018555,0.0,0.0,-0.3700000047683716,0.25999999046325684,-0.001090830541215837,0.0,0.0,-0.0,-0.0,1726473666.998312,-0.005414299186655329,-1.5640446407143624,0.5126707902409628
55.76996994018555,0.0,0.0,-0.3700000047683716,0.25999999046325684,-0.001090830541215837,0.0,0.0,-0.0,-0.0,1726473667.0081823,-0.005411701551045795,-1.564040484283205,0.5127527297974832
55.76996994018555,0.0,0.0,-0.3700000047683716,0.25999999046325684,-0.001090830541215837,0.0,0.0,-0.0,-0.0,1726473667.0183623,-0.005413841161741916,-1.564043270399285,0.5128753978377452
55.76996994018555,0.0,0.0,-0.3700000047683716,0.25999999046325684,-0.001090830541215837,0.0,0.0,-0.0,-0.0,1726473667.028085,-0.005404423176636833,-1.5640426571986115,0.5128141810209725
55.76996994018555,0.0,0.0,-0.3700000047683716,0.25999999046325684,-0.001090830541215837,0.0,0.0,-0.0,-0.0,1726473667.038023,-0.00540844203404855,-1.5640471116023438,0.5126229743424655
55.76996994018555,0.0,0.0,-0.3700000047683716,0.25999999046325684,-0.001090830541215837,0.0,0.0,-0.0,-0.0,1726473667.0484998,-0.005418110709937538,-1.5640533714604632,0.5126727909399147
55.76996994018555,0.0,0.0,-0.3700000047683716,0.25999999046325684,-0.001090830541215837,0.0,0.0,-0.0,-0.0,1726473667.0581543,-0.005422119132885721,-1.5640400476151042,0.5128178856329961
55.87100601196289,0.0,0.0,-0.44999998807907104,0.2199999988079071,0.001090830541215837,0.0,0.0,-0.0,-0.0,1726473667.0683622,-0.0054281693966286935,-1.5640390039310166,0.5126463258272475
55.87100601196289,0.0,0.0,-0.44999998807907104,0.2199999988079071,0.001090830541215837,0.0,0.0,-0.0,-0.0,1726473667.0785394,-0.005411575438663808,-1.5640401394959647,0.5127798698191913
55.87100601196289,0.0,0.0,-0.44999998807907104,0.2199999988079071,0.001090830541215837,0.0,0.0,-0.0,-0.0,1726473667.0882297,-0.00540842096140449,-1.5640340374853077,0.5127294450592124
55.87100601196289,0.0,0.0,-0.44999998807907104,0.2199999988079071,0.001090830541215837,0.0,0.0,-0.0,-0.0,1726473667.0981302,-0.0054099085044013555,-1.5640421711244101,0.5128738263544251
55.87100601196289,0.0,0.0,-0.44999998807907104,0.2199999988079071,0.001090830541215837,0.0,0.0,-0.0,-0.0,1726473667.108019,-0.005404123081090039,-1.5640371788387224,0.5128053034802489
55.87100601196289,0.0,0.0,-0.44999998807907104,0.2199999988079071,0.001090830541215837,0.0,0.0,-0.0,-0.0,1726473667.1181877,-0.005409676457317571,-1.5640402565119425,0.512740079914053
55.87100601196289,0.0,0.0,-0.44999998807907104,0.2199999988079071,0.001090830541215837,0.0,0.0,-0.0,-0.0,1726473667.12826,-0.005436573100274744,-1.5640394617593052,0.5127474147488291
55.87100601196289,0.0,0.0,-0.44999998807907104,0.2199999988079071,0.001090830541215837,0.0,0.0,-0.0,-0.0,1726473667.1381984,-0.005439694339929308,-1.564045407048315,0.5127754762561181
55.87100601196289,0.0,0.0,-0.44999998807907104,0.2199999988079071,0.001090830541215837,0.0,0.0,-0.0,-0.0,1726473667.1482365,-0.005432527158732468,-1.564039497619381,0.5128167812322051
55.87100601196289,0.0,0.0,-0.44999998807907104,0.2199999988079071,0.001090830541215837,0.0,0.0,-0.0,-0.0,1726473667.1579633,-0.005415365088988212,-1.5640333897177927,0.5127599467148473
55.87100601196289,0.0,0.0,-0.44999998807907104,0.2199999988079071,0.001090830541215837,0.0,0.0,-0.0,-0.0,1726473667.1680706,-0.0054061753103995195,-1.5640433200440136,0.5128299732373822
55.97503662109375,0.0,0.0,-0.4300000071525574,0.23999999463558197,-0.001090830541215837,0.0,0.0,-0.0,-0.0,1726473667.1782093,-0.00541510113753638,-1.5640278479683478,0.5129048238028492
55.97503662109375,0.0,0.0,-0.4300000071525574,0.23999999463558197,-0.001090830541215837,0.0,0.0,-0.0,-0.0,1726473667.188447,-0.00542051848372946,-1.564037349890356,0.5129231037827098
55.97503662109375,0.0,0.0,-0.4300000071525574,0.23999999463558197,-0.001090830541215837,0.0,0.0,-0.0,-0.0,1726473667.1985059,-0.005423316680362647,-1.5640357501173836,0.5126935028176697
55.97503662109375,0.0,0.0,-0.4300000071525574,0.23999999463558197,-0.001090830541215837,0.0,0.0,-0.0,-0.0,1726473667.2081718,-0.005428487288190781,-1.5640364147059231,0.512911199606348
55.97503662109375,0.0,0.0,-0.4300000071525574,0.23999999463558197,-0.001090830541215837,0.0,0.0,-0.0,-0.0,1726473667.2182279,-0.005429390034947206,-1.564034188237834,0.5127898551341595
55.97503662109375,0.0,0.0,-0.4300000071525574,0.23999999463558197,-0.001090830541215837,0.0,0.0,-0.0,-0.0,1726473667.228457,-0.005420960885334823,-1.5640344044253525,0.5128232652328176
55.97503662109375,0.0,0.0,-0.4300000071525574,0.23999999463558197,-0.001090830541215837,0.0,0.0,-0.0,-0.0,1726473667.238357,-0.0054197501130334655,-1.5640359241924893,0.5128757076341833
55.97503662109375,0.0,0.0,-0.4300000071525574,0.23999999463558197,-0.001090830541215837,0.0,0.0,-0.0,-0.0,1726473667.248523,-0.005423218351476702,-1.5640419742073433,0.5127102109288744
55.97503662109375,0.0,0.0,-0.4300000071525574,0.23999999463558197,-0.001090830541215837,0.0,0.0,-0.0,-0.0,1726473667.258281,-0.00541657172428303,-1.5640394705885559,0.5126778970156997
56.07181167602539,0.0,0.0,-0.3499999940395355,0.2800000011920929,0.0032724919728934765,0.0,0.0,-0.0,-0.0,1726473667.2684367,-0.005427854346757489,-1.5640316942598562,0.512976377953826
56.07181167602539,0.0,0.0,-0.3499999940395355,0.2800000011920929,0.0032724919728934765,0.0,0.0,-0.0,-0.0,1726473667.2782607,-0.005435498299779251,-1.5640281949485966,0.5125625296762565
56.07181167602539,0.0,0.0,-0.3499999940395355,0.2800000011920929,0.0032724919728934765,0.0,0.0,-0.0,-0.0,1726473667.2882438,-0.005435054471739712,-1.5640228422551292,0.5129141434099915
56.07181167602539,0.0,0.0,-0.3499999940395355,0.2800000011920929,0.0032724919728934765,0.0,0.0,-0.0,-0.0,1726473667.2982943,-0.005435575907798951,-1.5640260923262301,0.5127528102039546
56.07181167602539,0.0,0.0,-0.3499999940395355,0.2800000011920929,0.0032724919728934765,0.0,0.0,-0.0,-0.0,1726473667.3081598,-0.00542567660777845,-1.5640356173287138,0.5128269023229508
56.07181167602539,0.0,0.0,-0.3499999940395355,0.2800000011920929,0.0032724919728934765,0.0,0.0,-0.0,-0.0,1726473667.3180797,-0.0054174383651821615,-1.5640307045655366,0.512683690880278
56.07181167602539,0.0,0.0,-0.3499999940395355,0.2800000011920929,0.0032724919728934765,0.0,0.0,-0.0,-0.0,1726473667.3282928,-0.0054098175686088275,-1.5640342678182229,0.5127929188973938
56.07181167602539,0.0,0.0,-0.3499999940395355,0.2800000011920929,0.0032724919728934765,0.0,0.0,-0.0,-0.0,1726473667.3383226,-0.005410181409139112,-1.5640376182643443,0.5128545450991636
56.07181167602539,0.0,0.0,-0.3499999940395355,0.2800000011920929,0.0032724919728934765,0.0,0.0,-0.0,-0.0,1726473667.3485508,-0.005413028758026713,-1.5640293733589894,0.5129755795761359
56.07181167602539,0.0,0.0,-0.3499999940395355,0.2800000011920929,0.0032724919728934765,0.0,0.0,-0.0,-0.0,1726473667.3590388,-0.005424444224086841,-1.5640335346022285,0.5128091782852282
56.17209243774414,0.0,0.0,-0.44999998807907104,0.2199999988079071,0.001090830541215837,0.0,0.0,-0.0,-0.0,1726473667.3681946,-0.005435261292558984,-1.5640356599915195,0.5127627771983255
56.17209243774414,0.0,0.0,-0.44999998807907104,0.2199999988079071,0.001090830541215837,0.0,0.0,-0.0,-0.0,1726473667.3785207,-0.005422143307683237,-1.56402837579192,0.5127549824393871
56.17209243774414,0.0,0.0,-0.44999998807907104,0.2199999988079071,0.001090830541215837,0.0,0.0,-0.0,-0.0,1726473667.3884397,-0.005413245212254507,-1.564033766443243,0.5126839863824144
56.17209243774414,0.0,0.0,-0.44999998807907104,0.2199999988079071,0.001090830541215837,0.0,0.0,-0.0,-0.0,1726473667.398316,-0.005406367988142261,-1.5640340720611146,0.5129155323570619
56.17209243774414,0.0,0.0,-0.44999998807907104,0.2199999988079071,0.001090830541215837,0.0,0.0,-0.0,-0.0,1726473667.4083858,-0.0054062544170494,-1.5640404591313333,0.5128606753721875
56.17209243774414,0.0,0.0,-0.44999998807907104,0.2199999988079071,0.001090830541215837,0.0,0.0,-0.0,-0.0,1726473667.4181125,-0.005403089060796248,-1.5640469510750847,0.5127738960376205
56.17209243774414,0.0,0.0,-0.44999998807907104,0.2199999988079071,0.001090830541215837,0.0,0.0,-0.0,-0.0,1726473667.4282742,-0.005414832894643201,-1.564034475335077,0.5127785281713715
56.17209243774414,0.0,0.0,-0.44999998807907104,0.2199999988079071,0.001090830541215837,0.0,0.0,-0.0,-0.0,1726473667.4382749,-0.005421355178870673,-1.5640303795240849,0.5127842250416218
56.17209243774414,0.0,0.0,-0.44999998807907104,0.2199999988079071,0.001090830541215837,0.0,0.0,-0.0,-0.0,1726473667.4484968,-0.005428742547700358,-1.5640341177686086,0.5128395674323415
56.17209243774414,0.0,0.0,-0.44999998807907104,0.2199999988079071,0.001090830541215837,0.0,0.0,-0.0,-0.0,1726473667.4583585,-0.005426085135313683,-1.564027660515684,0.5126751713334158
56.272056579589844,0.0,0.0,-0.38999998569488525,0.27000001072883606,-0.002181661082431674,0.0,0.0,-0.0,-0.0,1726473667.4686553,-0.0054147390238782405,-1.5640311589487328,0.512868707145826
56.272056579589844,0.0,0.0,-0.38999998569488525,0.27000001072883606,-0.002181661082431674,0.0,0.0,-0.0,-0.0,1726473667.4784677,-0.005416470080005085,-1.5640386491832166,0.5128073559748225
56.272056579589844,0.0,0.0,-0.38999998569488525,0.27000001072883606,-0.002181661082431674,0.0,0.0,-0.0,-0.0,1726473667.48825,-0.005415378104075442,-1.5640353006908547,0.5129157334810823
56.272056579589844,0.0,0.0,-0.38999998569488525,0.27000001072883606,-0.002181661082431674,0.0,0.0,-0.0,-0.0,1726473667.4986444,-0.005416362120268293,-1.5640357536414746,0.5128523880018891
56.272056579589844,0.0,0.0,-0.38999998569488525,0.27000001072883606,-0.002181661082431674,0.0,0.0,-0.0,-0.0,1726473667.5081885,-0.005429028088832016,-1.5640524300733203,0.5126765119944028
56.272056579589844,0.0,0.0,-0.38999998569488525,0.27000001072883606,-0.002181661082431674,0.0,0.0,-0.0,-0.0,1726473667.5181837,-0.005419112461625683,-1.5640463529097524,0.5129466275148813
56.272056579589844,0.0,0.0,-0.38999998569488525,0.27000001072883606,-0.002181661082431674,0.0,0.0,-0.0,-0.0,1726473667.5287702,-0.005426309008485653,-1.5640339641743286,0.5127068282891618
56.272056579589844,0.0,0.0,-0.38999998569488525,0.27000001072883606,-0.002181661082431674,0.0,0.0,-0.0,-0.0,1726473667.5380187,-0.005413729834126729,-1.5640349886108194,0.5127123271042286
56.272056579589844,0.0,0.0,-0.38999998569488525,0.27000001072883606,-0.002181661082431674,0.0,0.0,-0.0,-0.0,1726473667.5484512,-0.005418258567293053,-1.5640360733686025,0.5127683831828582
56.272056579589844,0.0,0.0,-0.38999998569488525,0.27000001072883606,-0.002181661082431674,0.0,0.0,-0.0,-0.0,1726473667.5581799,-0.005413846734716398,-1.5640438865135617,0.5127330794301481
56.272056579589844,0.0,0.0,-0.38999998569488525,0.27000001072883606,-0.002181661082431674,0.0,0.0,-0.0,-0.0,1726473667.5681944,-0.005419955502542039,-1.5640442006667856,0.5127269842362828
56.3731575012207,0.0,0.0,-0.3799999952316284,0.25999999046325684,0.001090830541215837,0.0,0.0,-0.0,-0.0,1726473667.5785143,-0.005419424394812233,-1.564039258598798,0.5128002337654256
56.3731575012207,0.0,0.0,-0.3799999952316284,0.25999999046325684,0.001090830541215837,0.0,0.0,-0.0,-0.0,1726473667.5878603,-0.00543169431959852,-1.5640329972023324,0.5127729461919818
56.3731575012207,0.0,0.0,-0.3799999952316284,0.25999999046325684,0.001090830541215837,0.0,0.0,-0.0,-0.0,1726473667.5983,-0.005433261655106188,-1.5640406402435811,0.5128073162508955
56.3731575012207,0.0,0.0,-0.3799999952316284,0.25999999046325684,0.001090830541215837,0.0,0.0,-0.0,-0.0,1726473667.608153,-0.005426989643384172,-1.5640360559939095,0.5128176929051999
56.3731575012207,0.0,0.0,-0.3799999952316284,0.25999999046325684,0.001090830541215837,0.0,0.0,-0.0,-0.0,1726473667.6180575,-0.005423833517830348,-1.564039774971954,0.5127162358336608
56.3731575012207,0.0,0.0,-0.3799999952316284,0.25999999046325684,0.001090830541215837,0.0,0.0,-0.0,-0.0,1726473667.628245,-0.005414738387220803,-1.5640410190139145,0.5128582656810511
56.3731575012207,0.0,0.0,-0.3799999952316284,0.25999999046325684,0.001090830541215837,0.0,0.0,-0.0,-0.0,1726473667.6380782,-0.005425189092250473,-1.5640456527073572,0.5127133091277415
56.3731575012207,0.0,0.0,-0.3799999952316284,0.25999999046325684,0.001090830541215837,0.0,0.0,-0.0,-0.0,1726473667.648395,-0.005419567270294732,-1.564042030526848,0.5128085906113684
56.3731575012207,0.0,0.0,-0.3799999952316284,0.25999999046325684,0.001090830541215837,0.0,0.0,-0.0,-0.0,1726473667.6582918,-0.005416636540443722,-1.5640400445463873,0.5127271274815941
56.472049713134766,0.0,0.0,-0.4399999976158142,0.25,0.001090830541215837,0.0,0.0,-0.0,-0.0,1726473667.668533,-0.005426370367359471,-1.5640457691371294,0.5128079411721186
56.472049713134766,0.0,0.0,-0.4399999976158142,0.25,0.001090830541215837,0.0,0.0,-0.0,-0.0,1726473667.6783316,-0.005423157458793963,-1.564035038398484,0.512745809069809
56.472049713134766,0.0,0.0,-0.4399999976158142,0.25,0.001090830541215837,0.0,0.0,-0.0,-0.0,1726473667.687777,-0.005429133253942925,-1.5640433353021914,0.5128169432649446
56.472049713134766,0.0,0.0,-0.4399999976158142,0.25,0.001090830541215837,0.0,0.0,-0.0,-0.0,1726473667.6973903,-0.0054130156398475805,-1.5640342365769482,0.5127569712808395
56.472049713134766,0.0,0.0,-0.4399999976158142,0.25,0.001090830541215837,0.0,0.0,-0.0,-0.0,1726473667.7078273,-0.0054039214022748834,-1.5640433724053684,0.5127660681970025
56.472049713134766,0.0,0.0,-0.4399999976158142,0.25,0.001090830541215837,0.0,0.0,-0.0,-0.0,1726473667.7179916,-0.005411049273019876,-1.5640315938996228,0.5127553540116033
56.472049713134766,0.0,0.0,-0.4399999976158142,0.25,0.001090830541215837,0.0,0.0,-0.0,-0.0,1726473667.7284129,-0.005408802587055177,-1.5640457863240065,0.5129131846910168
56.472049713134766,0.0,0.0,-0.4399999976158142,0.25,0.001090830541215837,0.0,0.0,-0.0,-0.0,1726473667.7380414,-0.005426890731312993,-1.5640391420421926,0.5128267544492543
56.472049713134766,0.0,0.0,-0.4399999976158142,0.25,0.001090830541215837,0.0,0.0,-0.0,-0.0,1726473667.7483888,-0.005427080240362827,-1.5640315832443084,0.512796094691709
56.472049713134766,0.0,0.0,-0.4399999976158142,0.25,0.001090830541215837,0.0,0.0,-0.0,-0.0,1726473667.7585623,-0.005429310854773099,-1.5640183550859394,0.5128225426615808
56.57202911376953,0.0,0.0,-0.4399999976158142,0.25,0.002181661082431674,0.0,0.0,-0.0,-0.0,1726473667.7681298,-0.0054375548445316,-1.5640338592097176,0.5128619065139127
56.57202911376953,0.0,0.0,-0.4399999976158142,0.25,0.002181661082431674,0.0,0.0,-0.0,-0.0,1726473667.7786288,-0.005419856992977401,-1.5640273727862133,0.5127977190635128
56.57202911376953,0.0,0.0,-0.4399999976158142,0.25,0.002181661082431674,0.0,0.0,-0.0,-0.0,1726473667.7881298,-0.005428357543564568,-1.5640236136454586,0.5127855279597008
56.57202911376953,0.0,0.0,-0.4399999976158142,0.25,0.002181661082431674,0.0,0.0,-0.0,-0.0,1726473667.7979963,-0.0054167204699201305,-1.5640301593886958,0.5128361660205645
56.57202911376953,0.0,0.0,-0.4399999976158142,0.25,0.002181661082431674,0.0,0.0,-0.0,-0.0,1726473667.80813,-0.0054164144928273514,-1.5640225062709496,0.5126893855030312
56.57202911376953,0.0,0.0,-0.4399999976158142,0.25,0.002181661082431674,0.0,0.0,-0.0,-0.0,1726473667.81845,-0.005420498549542629,-1.5640249383455465,0.512816736504807
56.57202911376953,0.0,0.0,-0.4399999976158142,0.25,0.002181661082431674,0.0,0.0,-0.0,-0.0,1726473667.8283553,-0.0054243498493996185,-1.564033791495475,0.512826561275895
56.57202911376953,0.0,0.0,-0.4399999976158142,0.25,0.002181661082431674,0.0,0.0,-0.0,-0.0,1726473667.8386326,-0.005417369778008838,-1.5640324402831978,0.5128487052179268
56.57202911376953,0.0,0.0,-0.4399999976158142,0.25,0.002181661082431674,0.0,0.0,-0.0,-0.0,1726473667.8485677,-0.005415443632612326,-1.5640212913810758,0.5126777547421331
56.57202911376953,0.0,0.0,-0.4399999976158142,0.25,0.002181661082431674,0.0,0.0,-0.0,-0.0,1726473667.8583753,-0.005416730921027019,-1.564034965725865,0.5126890170777837
56.67219924926758,0.0,0.0,-0.4000000059604645,0.25999999046325684,-0.001090830541215837,0.0,0.0,-0.0,-0.0,1726473667.8684998,-0.0054347621410612106,-1.5640325937843857,0.5129203481523076
56.67219924926758,0.0,0.0,-0.4000000059604645,0.25999999046325684,-0.001090830541215837,0.0,0.0,-0.0,-0.0,1726473667.8782952,-0.005427234281787176,-1.564041787626039,0.5128266685366902
56.67219924926758,0.0,0.0,-0.4000000059604645,0.25999999046325684,-0.001090830541215837,0.0,0.0,-0.0,-0.0,1726473667.8880174,-0.005428596733377617,-1.5640239149676531,0.5127752020101254
56.67219924926758,0.0,0.0,-0.4000000059604645,0.25999999046325684,-0.001090830541215837,0.0,0.0,-0.0,-0.0,1726473667.8986413,-0.005415977112726805,-1.5640276797715276,0.5129991888250236
56.67219924926758,0.0,0.0,-0.4000000059604645,0.25999999046325684,-0.001090830541215837,0.0,0.0,-0.0,-0.0,1726473667.9083676,-0.005422043113240022,-1.5640313755528434,0.5128091793844595
56.67219924926758,0.0,0.0,-0.4000000059604645,0.25999999046325684,-0.001090830541215837,0.0,0.0,-0.0,-0.0,1726473667.9181705,-0.005419066063661155,-1.5640366143306805,0.5128622508477589
56.67219924926758,0.0,0.0,-0.4000000059604645,0.25999999046325684,-0.001090830541215837,0.0,0.0,-0.0,-0.0,1726473667.928301,-0.0054264331804900895,-1.5640396032341561,0.5127303925765603
56.67219924926758,0.0,0.0,-0.4000000059604645,0.25999999046325684,-0.001090830541215837,0.0,0.0,-0.0,-0.0,1726473667.9380982,-0.005418349728446983,-1.5640258186059177,0.5128732808401033
56.67219924926758,0.0,0.0,-0.4000000059604645,0.25999999046325684,-0.001090830541215837,0.0,0.0,-0.0,-0.0,1726473667.94835,-0.005429627820565743,-1.5640331339453901,0.512823374718525
56.67219924926758,0.0,0.0,-0.4000000059604645,0.25999999046325684,-0.001090830541215837,0.0,0.0,-0.0,-0.0,1726473667.9582307,-0.0054193113686749365,-1.5640237187096588,0.5127397678938783
56.77260208129883,0.0,0.0,-0.4000000059604645,0.27000001072883606,-0.001090830541215837,0.0,0.0,-0.0,-0.0,1726473667.9681578,-0.005413042932813671,-1.5640366390128442,0.5126739708771587
56.77260208129883,0.0,0.0,-0.4000000059604645,0.27000001072883606,-0.001090830541215837,0.0,0.0,-0.0,-0.0,1726473667.9784021,-0.0054093606489698035,-1.5640346713526267,0.512930828488003
56.77260208129883,0.0,0.0,-0.4000000059604645,0.27000001072883606,-0.001090830541215837,0.0,0.0,-0.0,-0.0,1726473667.9882736,-0.0054283715249923295,-1.5640320166256332,0.5128054223837901
56.77260208129883,0.0,0.0,-0.4000000059604645,0.27000001072883606,-0.001090830541215837,0.0,0.0,-0.0,-0.0,1726473667.9983342,-0.005427624946218241,-1.5640315431969543,0.512796088351848
56.77260208129883,0.0,0.0,-0.4000000059604645,0.27000001072883606,-0.001090830541215837,0.0,0.0,-0.0,-0.0,1726473668.00814,-0.005419176232803394,-1.564028234104215,0.5128608573746076
56.77260208129883,0.0,0.0,-0.4000000059604645,0.27000001072883606,-0.001090830541215837,0.0,0.0,-0.0,-0.0,1726473668.0181901,-0.005421739817016016,-1.5640456661723898,0.5127875985248027
56.77260208129883,0.0,0.0,-0.4000000059604645,0.27000001072883606,-0.001090830541215837,0.0,0.0,-0.0,-0.0,1726473668.0280674,-0.005405104428925836,-1.564037331992474,0.5128276647513084
56.77260208129883,0.0,0.0,-0.4000000059604645,0.27000001072883606,-0.001090830541215837,0.0,0.0,-0.0,-0.0,1726473668.0384395,-0.005406574282240945,-1.5640354559138445,0.5128646848947428
56.77260208129883,0.0,0.0,-0.4000000059604645,0.27000001072883606,-0.001090830541215837,0.0,0.0,-0.0,-0.0,1726473668.0486093,-0.005407414987893405,-1.5640414519652435,0.512908279981401
56.77260208129883,0.0,0.0,-0.4000000059604645,0.27000001072883606,-0.001090830541215837,0.0,0.0,-0.0,-0.0,1726473668.058174,-0.005415700612476718,-1.5640312029112697,0.5129301307273162
56.868350982666016,0.0,0.0,-0.4399999976158142,0.25,0.001090830541215837,0.0,0.0,-0.0,-0.0,1726473668.0684676,-0.005425577245104128,-1.564030697767149,0.512792686565686
56.868350982666016,0.0,0.0,-0.4399999976158142,0.25,0.001090830541215837,0.0,0.0,-0.0,-0.0,1726473668.0784588,-0.0054280746040614785,-1.5640395687961932,0.5128720361524255
56.868350982666016,0.0,0.0,-0.4399999976158142,0.25,0.001090830541215837,0.0,0.0,-0.0,-0.0,1726473668.088194,-0.0054232276216670035,-1.5640499512253105,0.5127900038336526
56.868350982666016,0.0,0.0,-0.4399999976158142,0.25,0.001090830541215837,0.0,0.0,-0.0,-0.0,1726473668.0985284,-0.005404021432554461,-1.5640483334611819,0.5126476029907003
56.868350982666016,0.0,0.0,-0.4399999976158142,0.25,0.001090830541215837,0.0,0.0,-0.0,-0.0,1726473668.1083238,-0.005401241727614115,-1.5640446836677468,0.5128022453192467
56.868350982666016,0.0,0.0,-0.4399999976158142,0.25,0.001090830541215837,0.0,0.0,-0.0,-0.0,1726473668.1183546,-0.005410295012635372,-1.5640326482249451,0.5128615877679922
56.868350982666016,0.0,0.0,-0.4399999976158142,0.25,0.001090830541215837,0.0,0.0,-0.0,-0.0,1726473668.1283252,-0.005418854865348578,-1.5640337641059094,0.5129149969261675
56.868350982666016,0.0,0.0,-0.4399999976158142,0.25,0.001090830541215837,0.0,0.0,-0.0,-0.0,1726473668.1381023,-0.005431964672341178,-1.5640291214733082,0.5128469642935972
56.868350982666016,0.0,0.0,-0.4399999976158142,0.25,0.001090830541215837,0.0,0.0,-0.0,-0.0,1726473668.1483839,-0.005435822878929238,-1.5640287686203163,0.5127780266834184
56.868350982666016,0.0,0.0,-0.4399999976158142,0.25,0.001090830541215837,0.0,0.0,-0.0,-0.0,1726473668.158495,-0.0054095548658682005,-1.5640306673706381,0.5129013817918666
56.968692779541016,0.0,0.0,-0.3499999940395355,0.2800000011920929,-0.001090830541215837,0.0,0.0,-0.0,-0.0,1726473668.1680238,-0.0054078959844021945,-1.56404159743478,0.512891701399671
56.968692779541016,0.0,0.0,-0.3499999940395355,0.2800000011920929,-0.001090830541215837,0.0,0.0,-0.0,-0.0,1726473668.17872,-0.005406394799647077,-1.5640444992420095,0.5128287172469339
56.968692779541016,0.0,0.0,-0.3499999940395355,0.2800000011920929,-0.001090830541215837,0.0,0.0,-0.0,-0.0,1726473668.1881304,-0.005400165899831613,-1.5640461494626203,0.5127975254879235
56.968692779541016,0.0,0.0,-0.3499999940395355,0.2800000011920929,-0.001090830541215837,0.0,0.0,-0.0,-0.0,1726473668.198372,-0.005406060508829647,-1.5640444418525918,0.512818735829178
56.968692779541016,0.0,0.0,-0.3499999940395355,0.2800000011920929,-0.001090830541215837,0.0,0.0,-0.0,-0.0,1726473668.2082527,-0.005426218454743814,-1.5640255536045649,0.5127728406304689
56.968692779541016,0.0,0.0,-0.3499999940395355,0.2800000011920929,-0.001090830541215837,0.0,0.0,-0.0,-0.0,1726473668.218014,-0.005422303406916494,-1.5640288691147524,0.5127230276006082
56.968692779541016,0.0,0.0,-0.3499999940395355,0.2800000011920929,-0.001090830541215837,0.0,0.0,-0.0,-0.0,1726473668.2283022,-0.005436269252249679,-1.5640365919134014,0.5128517053960013
56.968692779541016,0.0,0.0,-0.3499999940395355,0.2800000011920929,-0.001090830541215837,0.0,0.0,-0.0,-0.0,1726473668.2385144,-0.005415708298410211,-1.56402802201345,0.5128074736936795
56.968692779541016,0.0,0.0,-0.3499999940395355,0.2800000011920929,-0.001090830541215837,0.0,0.0,-0.0,-0.0,1726473668.2492068,-0.005409030668854949,-1.564039824098058,0.5128705996158265
56.968692779541016,0.0,0.0,-0.3499999940395355,0.2800000011920929,-0.001090830541215837,0.0,0.0,-0.0,-0.0,1726473668.2582707,-0.005395848253585778,-1.5640302121142555,0.5127776383909253
57.069557189941406,0.0,0.0,-0.38999998569488525,0.25,0.001090830541215837,0.0,0.0,-0.0,-0.0,1726473668.2680883,-0.005413486311027461,-1.5640474415202261,0.5127543865410912
57.069557189941406,0.0,0.0,-0.38999998569488525,0.25,0.001090830541215837,0.0,0.0,-0.0,-0.0,1726473668.2782717,-0.0054181857402747485,-1.5640356650792497,0.51282658916129
57.069557189941406,0.0,0.0,-0.38999998569488525,0.25,0.001090830541215837,0.0,0.0,-0.0,-0.0,1726473668.2881134,-0.0054325597142370115,-1.5640343470348037,0.5127899400788378
57.069557189941406,0.0,0.0,-0.38999998569488525,0.25,0.001090830541215837,0.0,0.0,-0.0,-0.0,1726473668.298239,-0.005428385697362219,-1.5640290035721303,0.51288586203405
57.069557189941406,0.0,0.0,-0.38999998569488525,0.25,0.001090830541215837,0.0,0.0,-0.0,-0.0,1726473668.307917,-0.005423808819818522,-1.5640333229393653,0.5128709226331918
57.069557189941406,0.0,0.0,-0.38999998569488525,0.25,0.001090830541215837,0.0,0.0,-0.0,-0.0,1726473668.3183224,-0.005411668653891201,-1.564030978173128,0.5127534711712004
57.069557189941406,0.0,0.0,-0.38999998569488525,0.25,0.001090830541215837,0.0,0.0,-0.0,-0.0,1726473668.3283234,-0.005417409925168755,-1.5640315302901333,0.5128888391115599
57.069557189941406,0.0,0.0,-0.38999998569488525,0.25,0.001090830541215837,0.0,0.0,-0.0,-0.0,1726473668.338169,-0.00541774006813758,-1.564044378300955,0.5128296720352865
57.069557189941406,0.0,0.0,-0.38999998569488525,0.25,0.001090830541215837,0.0,0.0,-0.0,-0.0,1726473668.3484318,-0.0054132944406097795,-1.5640430315264195,0.5127594815247338
57.069557189941406,0.0,0.0,-0.38999998569488525,0.25,0.001090830541215837,0.0,0.0,-0.0,-0.0,1726473668.3584268,-0.005417926252326399,-1.5640350411406287,0.5128090786371963
57.16692352294922,0.0,0.0,-0.36000001430511475,0.23999999463558197,-0.002181661082431674,0.0,0.0,-0.0,-0.0,1726473668.368103,-0.0054157699234433625,-1.5640377408030952,0.5129038956240978
57.16692352294922,0.0,0.0,-0.36000001430511475,0.23999999463558197,-0.002181661082431674,0.0,0.0,-0.0,-0.0,1726473668.3783839,-0.005408935444347321,-1.564039105521124,0.5126836703473922
57.16692352294922,0.0,0.0,-0.36000001430511475,0.23999999463558197,-0.002181661082431674,0.0,0.0,-0.0,-0.0,1726473668.3879101,-0.00541960333060557,-1.564037895184953,0.5128401994258391
57.16692352294922,0.0,0.0,-0.36000001430511475,0.23999999463558197,-0.002181661082431674,0.0,0.0,-0.0,-0.0,1726473668.3983216,-0.0054171843559955475,-1.5640385880974421,0.5128090957762756
57.16692352294922,0.0,0.0,-0.36000001430511475,0.23999999463558197,-0.002181661082431674,0.0,0.0,-0.0,-0.0,1726473668.4083757,-0.005424243714330254,-1.5640300513361012,0.5127713495946064
57.16692352294922,0.0,0.0,-0.36000001430511475,0.23999999463558197,-0.002181661082431674,0.0,0.0,-0.0,-0.0,1726473668.4181752,-0.005419749073223003,-1.5640339814428306,0.5128313975815424
57.16692352294922,0.0,0.0,-0.36000001430511475,0.23999999463558197,-0.002181661082431674,0.0,0.0,-0.0,-0.0,1726473668.4282,-0.005417811016001815,-1.5640304014134911,0.5127514991329758
57.16692352294922,0.0,0.0,-0.36000001430511475,0.23999999463558197,-0.002181661082431674,0.0,0.0,-0.0,-0.0,1726473668.438545,-0.005408573806327927,-1.5640419337751952,0.5128125574520019
57.16692352294922,0.0,0.0,-0.36000001430511475,0.23999999463558197,-0.002181661082431674,0.0,0.0,-0.0,-0.0,1726473668.4486213,-0.005413128232337222,-1.5640248096009075,0.512653307100717
57.16692352294922,0.0,0.0,-0.36000001430511475,0.23999999463558197,-0.002181661082431674,0.0,0.0,-0.0,-0.0,1726473668.4581575,-0.005415966188727137,-1.5640437264954252,0.5129130103596677
57.26850128173828,0.0,0.0,-0.4300000071525574,0.23000000417232513,-0.004363322164863348,0.0,0.0,-0.0,-0.0,1726473668.4682372,-0.0054161101571509615,-1.5640346783140662,0.5127129157787301
57.26850128173828,0.0,0.0,-0.4300000071525574,0.23000000417232513,-0.004363322164863348,0.0,0.0,-0.0,-0.0,1726473668.4784172,-0.005423823382764321,-1.5640304987437348,0.5128134666684592
57.26850128173828,0.0,0.0,-0.4300000071525574,0.23000000417232513,-0.004363322164863348,0.0,0.0,-0.0,-0.0,1726473668.4881256,-0.005434020470694217,-1.5640302404102902,0.5127563499882036
57.26850128173828,0.0,0.0,-0.4300000071525574,0.23000000417232513,-0.004363322164863348,0.0,0.0,-0.0,-0.0,1726473668.4983304,-0.005420664414421279,-1.5640379176360868,0.5128408024158836
57.26850128173828,0.0,0.0,-0.4300000071525574,0.23000000417232513,-0.004363322164863348,0.0,0.0,-0.0,-0.0,1726473668.5083506,-0.005407356891691143,-1.564036332298779,0.5129446905624817
57.26850128173828,0.0,0.0,-0.4300000071525574,0.23000000417232513,-0.004363322164863348,0.0,0.0,-0.0,-0.0,1726473668.5179787,-0.005405579322004966,-1.564035442432428,0.5128549467378904
57.26850128173828,0.0,0.0,-0.4300000071525574,0.23000000417232513,-0.004363322164863348,0.0,0.0,-0.0,-0.0,1726473668.5282438,-0.005409978279976409,-1.56403243238252,0.5128328486619783
57.26850128173828,0.0,0.0,-0.4300000071525574,0.23000000417232513,-0.004363322164863348,0.0,0.0,-0.0,-0.0,1726473668.538036,-0.0054183267331344735,-1.5640454176476932,0.5126438740897157
57.26850128173828,0.0,0.0,-0.4300000071525574,0.23000000417232513,-0.004363322164863348,0.0,0.0,-0.0,-0.0,1726473668.5486813,-0.005420589149101818,-1.5640352372339221,0.5128737856479624
57.26850128173828,0.0,0.0,-0.4300000071525574,0.23000000417232513,-0.004363322164863348,0.0,0.0,-0.0,-0.0,1726473668.558557,-0.005428336657137264,-1.5640338558729943,0.5126692435782574
57.36792755126953,0.0,0.0,-0.36000001430511475,0.28999999165534973,0.001090830541215837,0.0,0.0,-0.0,-0.0,1726473668.5680606,-0.00543211519206065,-1.5640338537892036,0.5127176320002058
57.36792755126953,0.0,0.0,-0.36000001430511475,0.28999999165534973,0.001090830541215837,0.0,0.0,-0.0,-0.0,1726473668.5781178,-0.005420125403557254,-1.5640320993863908,0.5126785244311712
57.36792755126953,0.0,0.0,-0.36000001430511475,0.28999999165534973,0.001090830541215837,0.0,0.0,-0.0,-0.0,1726473668.5880942,-0.005420379440445866,-1.5640304223902146,0.5128410218152031
57.36792755126953,0.0,0.0,-0.36000001430511475,0.28999999165534973,0.001090830541215837,0.0,0.0,-0.0,-0.0,1726473668.5982468,-0.00542339753931756,-1.5640279808608173,0.5128280248989228
57.36792755126953,0.0,0.0,-0.36000001430511475,0.28999999165534973,0.001090830541215837,0.0,0.0,-0.0,-0.0,1726473668.6080105,-0.0054167947790055545,-1.5640358802171739,0.5127336755119883
57.36792755126953,0.0,0.0,-0.36000001430511475,0.28999999165534973,0.001090830541215837,0.0,0.0,-0.0,-0.0,1726473668.6179507,-0.005421004468558111,-1.564026807073149,0.5126987405558407
57.36792755126953,0.0,0.0,-0.36000001430511475,0.28999999165534973,0.001090830541215837,0.0,0.0,-0.0,-0.0,1726473668.6282287,-0.005413328214118373,-1.5640353750578289,0.5127437557406144
57.36792755126953,0.0,0.0,-0.36000001430511475,0.28999999165534973,0.001090830541215837,0.0,0.0,-0.0,-0.0,1726473668.6381123,-0.005412860506729929,-1.5640437818255377,0.5128140461110003
57.36792755126953,0.0,0.0,-0.36000001430511475,0.28999999165534973,0.001090830541215837,0.0,0.0,-0.0,-0.0,1726473668.648148,-0.005423286043259656,-1.56402492469069,0.5128442323406999
