elapsed time sensors,current,voltage,acc x (IMU),acc y (IMU),W (IMU),vel encoder,safety_value,throttle,steering,vicon time,vicon x,vicon y,vicon yaw
0.0,0.0,0.0,-0.3700000047683716,0.2800000011920929,-0.0021816610824316,0.0,0.0,0.0,-0.0,0.0,-0.0054178250265529,-1.5640328216341857,0.5127539626349357
0.0,0.0,0.0,-0.3700000047683716,0.2800000011920929,-0.0021816610824316,0.0,0.0,0.0,-0.0,0.009528875350952148,-0.0054178538668437,-1.564039627140463,0.5128378946160954
0.0,0.0,0.0,-0.3700000047683716,0.2800000011920929,-0.0021816610824316,0.0,0.0,0.0,-0.0,0.019660472869873047,-0.0054303403456486,-1.5640298682321978,0.5129247205058574
0.0,0.0,0.0,-0.3700000047683716,0.2800000011920929,-0.0021816610824316,0.0,0.0,0.0,-0.0,0.030188322067260742,-0.0054288113073148,-1.5640295472082313,0.5127720583882851
0.0,0.0,0.0,-0.3700000047683716,0.2800000011920929,-0.0021816610824316,0.0,0.0,0.0,-0.0,0.04011392593383789,-0.0054220831437834,-1.564024641174318,0.512787608611536
0.0,0.0,0.0,-0.3700000047683716,0.2800000011920929,-0.0021816610824316,0.0,0.0,0.0,-0.0,0.05047178268432617,-0.0054145631652851,-1.5640332520236149,0.5127374412744127
0.0,0.0,0.0,-0.3700000047683716,0.2800000011920929,-0.0021816610824316,0.0,0.0,0.0,-0.0,0.0602116584777832,-0.0054083749939728,-1.5640360008419711,0.5127192423470994
0.0,0.0,0.0,-0.3700000047683716,0.2800000011920929,-0.0021816610824316,0.0,0.0,0.0,-0.0,0.07035040855407715,-0.0054278077438771,-1.564040923685306,0.5128175230013484
0.0,0.0,0.0,-0.3700000047683716,0.2800000011920929,-0.0021816610824316,0.0,0.0,0.0,-0.0,0.08063268661499023,-0.0054324531137818,-1.564038510802603,0.5127846729691234
0.0,0.0,0.0,-0.3700000047683716,0.2800000011920929,-0.0021816610824316,0.0,0.0,0.0,-0.0,0.09035897254943848,-0.0054209036407917,-1.564030558516545,0.51260534938355
0.0,0.0,0.0,-0.3700000047683716,0.2800000011920929,-0.0021816610824316,0.0,0.0,0.0,-0.0,0.10040140151977539,-0.0054193603467948,-1.564034457063174,0.5128406620610838
0.10263442993164062,0.0,0.0,-0.3400000035762787,0.270000010728836,-0.0010908305412158,0.0,0.0,0.0,-0.0,0.11042165756225586,-0.0054048690827728,-1.5640319971670635,0.5128597525546543
0.10263442993164062,0.0,0.0,-0.3400000035762787,0.270000010728836,-0.0010908305412158,0.0,0.0,0.0,-0.0,0.12044692039489746,-0.0054194003106965,-1.5640334143197014,0.5127913832265995
0.10263442993164062,0.0,0.0,-0.3400000035762787,0.270000010728836,-0.0010908305412158,0.0,0.0,0.0,-0.0,0.1304454803466797,-0.0054247548065067,-1.56404933110306,0.5127261824505112
0.10263442993164062,0.0,0.0,-0.3400000035762787,0.270000010728836,-0.0010908305412158,0.0,0.0,0.0,-0.0,0.1403813362121582,-0.0054374688615963,-1.564032811704975,0.512762657393324
0.10263442993164062,0.0,0.0,-0.3400000035762787,0.270000010728836,-0.0010908305412158,0.0,0.0,0.0,-0.0,0.15076112747192383,-0.0054249327656452,-1.5640381283755969,0.5127751225910044
0.10263442993164062,0.0,0.0,-0.3400000035762787,0.270000010728836,-0.0010908305412158,0.0,0.0,0.0,-0.0,0.16046571731567383,-0.0054191045571453,-1.5640317017338208,0.5127586486957301
0.10263442993164062,0.0,0.0,-0.3400000035762787,0.270000010728836,-0.0010908305412158,0.0,0.0,0.0,-0.0,0.17037200927734375,-0.0054119101561923,-1.564033333576622,0.5125680293896977
0.10263442993164062,0.0,0.0,-0.3400000035762787,0.270000010728836,-0.0010908305412158,0.0,0.0,0.0,-0.0,0.1802363395690918,-0.0054063878900604,-1.5640349660938937,0.5127208960446077
0.10263442993164062,0.0,0.0,-0.3400000035762787,0.270000010728836,-0.0010908305412158,0.0,0.0,0.0,-0.0,0.19019842147827148,-0.0054176842962538,-1.5640334093094028,0.5127881347593888
0.2014312744140554,0.0,0.0,-0.449999988079071,0.2399999946355819,0.0,0.0,0.0,0.0,-0.0,0.20055294036865234,-0.0054325471870183,-1.5640411021859169,0.5127632376706484
0.2014312744140554,0.0,0.0,-0.449999988079071,0.2399999946355819,0.0,0.0,0.0,0.0,-0.0,0.21050405502319336,-0.0054266366575761,-1.564030454618434,0.5128335231883584
0.2014312744140554,0.0,0.0,-0.449999988079071,0.2399999946355819,0.0,0.0,0.0,0.0,-0.0,0.22059082984924316,-0.0054211011313367,-1.5640373731349757,0.5127599226719495
0.2014312744140554,0.0,0.0,-0.449999988079071,0.2399999946355819,0.0,0.0,0.0,0.0,-0.0,0.23032236099243164,-0.0054050274525343,-1.5640389427797343,0.5127985996163618
0.2014312744140554,0.0,0.0,-0.449999988079071,0.2399999946355819,0.0,0.0,0.0,0.0,-0.0,0.24022698402404785,-0.0054042428269587,-1.5640397228611076,0.512750352890806
0.2014312744140554,0.0,0.0,-0.449999988079071,0.2399999946355819,0.0,0.0,0.0,0.0,-0.0,0.250291109085083,-0.0054065701149038,-1.5640466491850549,0.5127696983658327
0.2014312744140554,0.0,0.0,-0.449999988079071,0.2399999946355819,0.0,0.0,0.0,0.0,-0.0,0.260331392288208,-0.0054097575555471,-1.5640361635654,0.5127648012462164
0.2014312744140554,0.0,0.0,-0.449999988079071,0.2399999946355819,0.0,0.0,0.0,0.0,-0.0,0.2707815170288086,-0.0054250546343385,-1.564030122023668,0.5127719603456808
0.2014312744140554,0.0,0.0,-0.449999988079071,0.2399999946355819,0.0,0.0,0.0,0.0,-0.0,0.2803080081939697,-0.0054295230749915,-1.564030740973148,0.512816123994238
0.2014312744140554,0.0,0.0,-0.449999988079071,0.2399999946355819,0.0,0.0,0.0,0.0,-0.0,0.2904829978942871,-0.0054208850818511,-1.5640315405855671,0.5127781687651246
0.3015556335449219,0.0,0.0,-0.3799999952316284,0.270000010728836,0.0,0.0,0.0,0.0,-0.0,0.3002331256866455,-0.0054138795921787,-1.564030575964575,0.5128139134941199
0.3015556335449219,0.0,0.0,-0.3799999952316284,0.270000010728836,0.0,0.0,0.0,0.0,-0.0,0.310382604598999,-0.0054179002510024,-1.5640459324623694,0.5127382028026165
0.3015556335449219,0.0,0.0,-0.3799999952316284,0.270000010728836,0.0,0.0,0.0,0.0,-0.0,0.32002806663513184,-0.0054089402542222,-1.5640378629327294,0.5129066167872602
0.3015556335449219,0.0,0.0,-0.3799999952316284,0.270000010728836,0.0,0.0,0.0,0.0,-0.0,0.3295934200286865,-0.0054097532356572,-1.5640440517648746,0.5128846883159834
0.3015556335449219,0.0,0.0,-0.3799999952316284,0.270000010728836,0.0,0.0,0.0,0.0,-0.0,0.339510440826416,-0.0054180619445847,-1.5640385774443597,0.5127720773371867
0.3015556335449219,0.0,0.0,-0.3799999952316284,0.270000010728836,0.0,0.0,0.0,0.0,-0.0,0.3499627113342285,-0.0054172032495394,-1.5640303779028857,0.5127345357959966
0.3015556335449219,0.0,0.0,-0.3799999952316284,0.270000010728836,0.0,0.0,0.0,0.0,-0.0,0.36001157760620117,-0.0054179433894033,-1.5640355180792802,0.5127727297014955
0.3015556335449219,0.0,0.0,-0.3799999952316284,0.270000010728836,0.0,0.0,0.0,0.0,-0.0,0.37038373947143555,-0.0054319634523754,-1.56403244494129,0.5128484104412436
0.3015556335449219,0.0,0.0,-0.3799999952316284,0.270000010728836,0.0,0.0,0.0,0.0,-0.0,0.38011813163757324,-0.0054153821751223,-1.5640389546075206,0.5127529072364096
0.3015556335449219,0.0,0.0,-0.3799999952316284,0.270000010728836,0.0,0.0,0.0,0.0,-0.0,0.38994812965393066,-0.0054320931285356,-1.564025875800512,0.5127025424795181
0.4014091491699219,0.0,0.0,-0.3899999856948852,0.270000010728836,-0.0010908305412158,0.0,0.0,0.0,-0.0,0.4000363349914551,-0.0054311774898113,-1.564034029733812,0.5127705326297672
0.4014091491699219,0.0,0.0,-0.3899999856948852,0.270000010728836,-0.0010908305412158,0.0,0.0,0.0,-0.0,0.4107706546783447,-0.0054159329647114,-1.5640336591153845,0.5127638648720606
0.4014091491699219,0.0,0.0,-0.3899999856948852,0.270000010728836,-0.0010908305412158,0.0,0.0,0.0,-0.0,0.4205920696258545,-0.0054172275129285,-1.5640416781997364,0.5128509008792249
0.4014091491699219,0.0,0.0,-0.3899999856948852,0.270000010728836,-0.0010908305412158,0.0,0.0,0.0,-0.0,0.43032360076904297,-0.0054112572229853,-1.5640337989925313,0.5127585311203059
0.4014091491699219,0.0,0.0,-0.3899999856948852,0.270000010728836,-0.0010908305412158,0.0,0.0,0.0,-0.0,0.44036173820495605,-0.0054084382008254,-1.5640374277009454,0.5129219374010106
0.4014091491699219,0.0,0.0,-0.3899999856948852,0.270000010728836,-0.0010908305412158,0.0,0.0,0.0,-0.0,0.45037269592285156,-0.0054217806286901,-1.564020979635274,0.5126680507719446
0.4014091491699219,0.0,0.0,-0.3899999856948852,0.270000010728836,-0.0010908305412158,0.0,0.0,0.0,-0.0,0.4603750705718994,-0.0054266001162571,-1.56402483144854,0.5126584046357222
0.4014091491699219,0.0,0.0,-0.3899999856948852,0.270000010728836,-0.0010908305412158,0.0,0.0,0.0,-0.0,0.47056031227111816,-0.0054237188187803,-1.5640251725900332,0.512809016405874
0.4014091491699219,0.0,0.0,-0.3899999856948852,0.270000010728836,-0.0010908305412158,0.0,0.0,0.0,-0.0,0.4805119037628174,-0.0054165002514514,-1.564042930716074,0.5127317772268677
0.4014091491699219,0.0,0.0,-0.3899999856948852,0.270000010728836,-0.0010908305412158,0.0,0.0,0.0,-0.0,0.4905412197113037,-0.0054109041634899,-1.564031545578693,0.5126436990454779
0.49846649169921875,0.0,0.0,-0.4300000071525574,0.2599999904632568,0.0021816610824316,0.0,0.0,0.0,-0.0,0.5004537105560303,-0.005417936361967,-1.5640307952697392,0.5127923822966102
0.49846649169921875,0.0,0.0,-0.4300000071525574,0.2599999904632568,0.0021816610824316,0.0,0.0,0.0,-0.0,0.5102386474609375,-0.0054119175166721,-1.5640285667033875,0.5128083361389627
0.49846649169921875,0.0,0.0,-0.4300000071525574,0.2599999904632568,0.0021816610824316,0.0,0.0,0.0,-0.0,0.5202374458312988,-0.0054292481983816,-1.5640174788379322,0.5128128431191551
0.49846649169921875,0.0,0.0,-0.4300000071525574,0.2599999904632568,0.0021816610824316,0.0,0.0,0.0,-0.0,0.5294983386993408,-0.005428686633244,-1.564022295444152,0.5126901001397955
0.49846649169921875,0.0,0.0,-0.4300000071525574,0.2599999904632568,0.0021816610824316,0.0,0.0,0.0,-0.0,0.5397722721099854,-0.0054305171961674,-1.5640286774300989,0.5129021866486496
0.49846649169921875,0.0,0.0,-0.4300000071525574,0.2599999904632568,0.0021816610824316,0.0,0.0,0.0,-0.0,0.549569845199585,-0.0054281160587541,-1.5640236479759908,0.5127481885787462
0.49846649169921875,0.0,0.0,-0.4300000071525574,0.2599999904632568,0.0021816610824316,0.0,0.0,0.0,-0.0,0.5596332550048828,-0.0054282399105965,-1.564027179969988,0.5128975987435064
0.49846649169921875,0.0,0.0,-0.4300000071525574,0.2599999904632568,0.0021816610824316,0.0,0.0,0.0,-0.0,0.5696406364440918,-0.005410986957948,-1.564032430926993,0.5129511045090137
0.49846649169921875,0.0,0.0,-0.4300000071525574,0.2599999904632568,0.0021816610824316,0.0,0.0,0.0,-0.0,0.5803680419921875,-0.0054152703086978,-1.5640198951451738,0.5127790682950931
0.49846649169921875,0.0,0.0,-0.4300000071525574,0.2599999904632568,0.0021816610824316,0.0,0.0,0.0,-0.0,0.5903339385986328,-0.0054325576704277,-1.56402875409408,0.5128906262919063
0.5987358093261719,0.0,0.0,-0.449999988079071,0.25,-0.0021816610824316,0.0,0.0,0.0,-0.0,0.5999670028686523,-0.0054434315036207,-1.564031623536599,0.5126525648365362
0.5987358093261719,0.0,0.0,-0.449999988079071,0.25,-0.0021816610824316,0.0,0.0,0.0,-0.0,0.6100683212280273,-0.0054359257438304,-1.5640258322538905,0.5128867675897173
0.5987358093261719,0.0,0.0,-0.449999988079071,0.25,-0.0021816610824316,0.0,0.0,0.0,-0.0,0.6194541454315186,-0.005437922324023,-1.5640358185248355,0.5127415567906377
0.5987358093261719,0.0,0.0,-0.449999988079071,0.25,-0.0021816610824316,0.0,0.0,0.0,-0.0,0.6301929950714111,-0.0054343730524224,-1.564020197723334,0.5128863964520363
0.5987358093261719,0.0,0.0,-0.449999988079071,0.25,-0.0021816610824316,0.0,0.0,0.0,-0.0,0.6400692462921143,-0.0054301469010835,-1.5640171427642906,0.5128886585634467
0.5987358093261719,0.0,0.0,-0.449999988079071,0.25,-0.0021816610824316,0.0,0.0,0.0,-0.0,0.6501359939575195,-0.0054353069147477,-1.5640289355730177,0.512745377514434
0.5987358093261719,0.0,0.0,-0.449999988079071,0.25,-0.0021816610824316,0.0,0.0,0.0,-0.0,0.660219669342041,-0.0054349495538321,-1.5640229045532492,0.5127872348147422
0.5987358093261719,0.0,0.0,-0.449999988079071,0.25,-0.0021816610824316,0.0,0.0,0.0,-0.0,0.6697075366973877,-0.0054193635045323,-1.5640301608023934,0.5129601056273987
0.5987358093261719,0.0,0.0,-0.449999988079071,0.25,-0.0021816610824316,0.0,0.0,0.0,-0.0,0.6799192428588867,-0.0054344650482271,-1.564036897866976,0.5126408740518806
0.5987358093261719,0.0,0.0,-0.449999988079071,0.25,-0.0021816610824316,0.0,0.0,0.0,-0.0,0.690044641494751,-0.0054293379425128,-1.5640405816188148,0.5128267613117511
0.7009468078613281,0.0,0.0,-0.3899999856948852,0.2599999904632568,0.0,0.0,0.0,0.0,-0.0,0.6999597549438477,-0.0054303055389046,-1.5640389812350424,0.5127252921969373
0.7009468078613281,0.0,0.0,-0.3899999856948852,0.2599999904632568,0.0,0.0,0.0,0.0,-0.0,0.7100963592529297,-0.0054383549409395,-1.5640270630805564,0.5129222317731608
0.7009468078613281,0.0,0.0,-0.3899999856948852,0.2599999904632568,0.0,0.0,0.0,0.0,-0.0,0.7200155258178711,-0.0054416517793216,-1.5640196145981788,0.5128739938402989
0.7009468078613281,0.0,0.0,-0.3899999856948852,0.2599999904632568,0.0,0.0,0.0,0.0,-0.0,0.7301342487335205,-0.0054308860214928,-1.5640238785190406,0.5129212921276415
0.7009468078613281,0.0,0.0,-0.3899999856948852,0.2599999904632568,0.0,0.0,0.0,0.0,-0.0,0.7401256561279297,-0.0054459705960129,-1.564015453572043,0.5126920562844918
0.7009468078613281,0.0,0.0,-0.3899999856948852,0.2599999904632568,0.0,0.0,0.0,0.0,-0.0,0.7500736713409424,-0.0054398339573688,-1.5640409080319664,0.5128329974484459
0.7009468078613281,0.0,0.0,-0.3899999856948852,0.2599999904632568,0.0,0.0,0.0,0.0,-0.0,0.7601406574249268,-0.0054362070497511,-1.5640434248048645,0.5126918835082921
0.7009468078613281,0.0,0.0,-0.3899999856948852,0.2599999904632568,0.0,0.0,0.0,0.0,-0.0,0.7703425884246826,-0.0054153565474195,-1.5640347939258736,0.5128912719721102
0.7009468078613281,0.0,0.0,-0.3899999856948852,0.2599999904632568,0.0,0.0,0.0,0.0,-0.0,0.7801005840301514,-0.0054169880072515,-1.5640320279792048,0.5128967351010929
0.7009468078613281,0.0,0.0,-0.3899999856948852,0.2599999904632568,0.0,0.0,0.0,0.0,-0.0,0.7900755405426025,-0.0054187605520139,-1.5640285212858214,0.5127288413401757
0.797962188720696,0.0,0.0,-0.3700000047683716,0.2800000011920929,0.0010908305412158,0.0,0.0,0.0,-0.0,0.8001761436462402,-0.0054198495249008,-1.5640139058544753,0.5129526769617009
0.797962188720696,0.0,0.0,-0.3700000047683716,0.2800000011920929,0.0010908305412158,0.0,0.0,0.0,-0.0,0.810234785079956,-0.0054298226998783,-1.5640254730699392,0.512813556327289
0.797962188720696,0.0,0.0,-0.3700000047683716,0.2800000011920929,0.0010908305412158,0.0,0.0,0.0,-0.0,0.8201577663421631,-0.0054365566604438,-1.5640311904725803,0.5126407464277127
0.797962188720696,0.0,0.0,-0.3700000047683716,0.2800000011920929,0.0010908305412158,0.0,0.0,0.0,-0.0,0.8295178413391113,-0.0054325009056577,-1.5640492574464204,0.5127169606358373
0.797962188720696,0.0,0.0,-0.3700000047683716,0.2800000011920929,0.0010908305412158,0.0,0.0,0.0,-0.0,0.8394989967346191,-0.0054122174161479,-1.5640592387205747,0.512574297051346
0.797962188720696,0.0,0.0,-0.3700000047683716,0.2800000011920929,0.0010908305412158,0.0,0.0,0.0,-0.0,0.8500723838806152,-0.0054007273693961,-1.564051558109574,0.5127773591002738
0.797962188720696,0.0,0.0,-0.3700000047683716,0.2800000011920929,0.0010908305412158,0.0,0.0,0.0,-0.0,0.8607926368713379,-0.005398637230087,-1.5640187492363025,0.5128723819646818
0.797962188720696,0.0,0.0,-0.3700000047683716,0.2800000011920929,0.0010908305412158,0.0,0.0,0.0,-0.0,0.8706269264221191,-0.0054034143002414,-1.5640109518712706,0.5128686337371722
0.797962188720696,0.0,0.0,-0.3700000047683716,0.2800000011920929,0.0010908305412158,0.0,0.0,0.0,-0.0,0.8802721500396729,-0.0054252666405924,-1.5640206319843264,0.5128533192428013
0.797962188720696,0.0,0.0,-0.3700000047683716,0.2800000011920929,0.0010908305412158,0.0,0.0,0.0,-0.0,0.8901984691619873,-0.0054360855108157,-1.5640231965044773,0.5128391386774102
0.9006500244140554,0.0,0.0,-0.449999988079071,0.2399999946355819,0.0,0.0,0.0,0.0,-0.0,0.9004452228546143,-0.0054401677249479,-1.56404032137382,0.5127354454942016
0.9006500244140554,0.0,0.0,-0.449999988079071,0.2399999946355819,0.0,0.0,0.0,0.0,-0.0,0.9103903770446777,-0.0054106741501978,-1.5640492189152828,0.5125731745630757
0.9006500244140554,0.0,0.0,-0.449999988079071,0.2399999946355819,0.0,0.0,0.0,0.0,-0.0,0.9207265377044678,-0.0053866153781545,-1.5640529615903498,0.5127540528938294
0.9006500244140554,0.0,0.0,-0.449999988079071,0.2399999946355819,0.0,0.0,0.0,0.0,-0.0,0.9303622245788574,-0.0053854906688282,-1.5640337952535384,0.5127639104114117
0.9006500244140554,0.0,0.0,-0.449999988079071,0.2399999946355819,0.0,0.0,0.0,0.0,-0.0,0.9396195411682129,-0.0053999704744437,-1.5640156343983294,0.5128958719061197
0.9006500244140554,0.0,0.0,-0.449999988079071,0.2399999946355819,0.0,0.0,0.0,0.0,-0.0,0.9494979381561279,-0.0054274691352907,-1.5640215245793714,0.5128920698761799
0.9006500244140554,0.0,0.0,-0.449999988079071,0.2399999946355819,0.0,0.0,0.0,0.0,-0.0,0.9595839977264404,-0.0054322413660871,-1.5640143700512197,0.5128060606292675
0.9006500244140554,0.0,0.0,-0.449999988079071,0.2399999946355819,0.0,0.0,0.0,0.0,-0.0,0.9696943759918213,-0.005433894779872,-1.5640219205613115,0.5127480481946364
0.9006500244140554,0.0,0.0,-0.449999988079071,0.2399999946355819,0.0,0.0,0.0,0.0,-0.0,0.9796860218048096,-0.0054192383330699,-1.5640418462864345,0.5128625592210381
0.9006500244140554,0.0,0.0,-0.449999988079071,0.2399999946355819,0.0,0.0,0.0,0.0,-0.0,0.9897935390472412,-0.0054009997296383,-1.564059338303732,0.5126713556243077
0.9006500244140554,0.0,0.0,-0.449999988079071,0.2399999946355819,0.0,0.0,0.0,0.0,-0.0,0.999516487121582,-0.0053906005272784,-1.5640563773644405,0.5129291387614549
1.0015869140625,0.0,0.0,-0.3700000047683716,0.270000010728836,0.0021816610824316,0.0,0.0,0.0,-0.0,1.0095279216766357,-0.0053941622738345,-1.5640449252685442,0.5129546384876772
1.0015869140625,0.0,0.0,-0.3700000047683716,0.270000010728836,0.0021816610824316,0.0,0.0,0.0,-0.0,1.0196633338928223,-0.0054131340102681,-1.5640217758977073,0.5129803657729486
1.0015869140625,0.0,0.0,-0.3700000047683716,0.270000010728836,0.0021816610824316,0.0,0.0,0.0,-0.0,1.029395580291748,-0.0054279125202566,-1.5640246144124832,0.5127533954896253
1.0015869140625,0.0,0.0,-0.3700000047683716,0.270000010728836,0.0021816610824316,0.0,0.0,0.0,-0.0,1.0400402545928955,-0.0054421921893376,-1.564020060080171,0.512805912004652
1.0015869140625,0.0,0.0,-0.3700000047683716,0.270000010728836,0.0021816610824316,0.0,0.0,0.0,-0.0,1.0494673252105713,-0.0054317478985908,-1.5640298437158762,0.5128308808925974
1.0015869140625,0.0,0.0,-0.3700000047683716,0.270000010728836,0.0021816610824316,0.0,0.0,0.0,-0.0,1.059948205947876,-0.0054077499415932,-1.5640573932307842,0.5128394755706601
1.0015869140625,0.0,0.0,-0.3700000047683716,0.270000010728836,0.0021816610824316,0.0,0.0,0.0,-0.0,1.0700397491455078,-0.0054011643393525,-1.5640523392168566,0.5127683327755589
1.0015869140625,0.0,0.0,-0.3700000047683716,0.270000010728836,0.0021816610824316,0.0,0.0,0.0,-0.0,1.0800211429595947,-0.0054045460048831,-1.5640409606638417,0.5126207768838378
1.0015869140625,0.0,0.0,-0.3700000047683716,0.270000010728836,0.0021816610824316,0.0,0.0,0.0,-0.0,1.0902879238128662,-0.0054222911033847,-1.5640444319338311,0.5128275045188933
1.0980911254882812,0.0,0.0,-0.4399999976158142,0.2399999946355819,0.0,0.0,0.0,0.0,-0.0,1.1000885963439941,-0.0054319678727765,-1.5640325662520838,0.5129058186757043
1.0980911254882812,0.0,0.0,-0.4399999976158142,0.2399999946355819,0.0,0.0,0.0,0.0,-0.0,1.1102352142333984,-0.0054517620424743,-1.5640244136716044,0.5128117385511723
1.0980911254882812,0.0,0.0,-0.4399999976158142,0.2399999946355819,0.0,0.0,0.0,0.0,-0.0,1.1200976371765137,-0.0054455674140112,-1.5640267738884672,0.5128814087681804
1.0980911254882812,0.0,0.0,-0.4399999976158142,0.2399999946355819,0.0,0.0,0.0,0.0,-0.0,1.1301336288452148,-0.0054157402517675,-1.5640337250469185,0.5126830628632357
1.0980911254882812,0.0,0.0,-0.4399999976158142,0.2399999946355819,0.0,0.0,0.0,0.0,-0.0,1.1402180194854736,-0.005397702382091,-1.564042272738602,0.5128098964489346
1.0980911254882812,0.0,0.0,-0.4399999976158142,0.2399999946355819,0.0,0.0,0.0,0.0,-0.0,1.1500747203826904,-0.0054062375307543,-1.5640395224611383,0.5128030867030895
1.0980911254882812,0.0,0.0,-0.4399999976158142,0.2399999946355819,0.0,0.0,0.0,0.0,-0.0,1.1601722240447998,-0.0054134834189561,-1.5640371978493808,0.5128018949225257
1.0980911254882812,0.0,0.0,-0.4399999976158142,0.2399999946355819,0.0,0.0,0.0,0.0,-0.0,1.1700997352600098,-0.0054435597396693,-1.5640182044275266,0.5127104642359211
1.0980911254882812,0.0,0.0,-0.4399999976158142,0.2399999946355819,0.0,0.0,0.0,0.0,-0.0,1.180055856704712,-0.0054554846437748,-1.564014604361635,0.5128281219962992
1.0980911254882812,0.0,0.0,-0.4399999976158142,0.2399999946355819,0.0,0.0,0.0,0.0,-0.0,1.190178394317627,-0.0054433844684092,-1.564011166423762,0.5127506690888542
1.1985359191894531,0.0,0.0,-0.3700000047683716,0.2899999916553497,0.0,0.0,0.0,0.0,-0.0,1.2001686096191406,-0.0054173478741579,-1.5640309650364972,0.5129213343391775
1.1985359191894531,0.0,0.0,-0.3700000047683716,0.2899999916553497,0.0,0.0,0.0,0.0,-0.0,1.2101726531982422,-0.0053945110983963,-1.5640389036512146,0.5128149641631251
1.1985359191894531,0.0,0.0,-0.3700000047683716,0.2899999916553497,0.0,0.0,0.0,0.0,-0.0,1.22013258934021,-0.0053801769089335,-1.5640419811859405,0.5126759502760152
1.1985359191894531,0.0,0.0,-0.3700000047683716,0.2899999916553497,0.0,0.0,0.0,0.0,-0.0,1.2300636768341064,-0.0054160651916977,-1.564037132794347,0.5125267822489806
1.1985359191894531,0.0,0.0,-0.3700000047683716,0.2899999916553497,0.0,0.0,0.0,0.0,-0.0,1.2404584884643555,-0.0054304602622828,-1.5640319505223916,0.5128493140602433
1.1985359191894531,0.0,0.0,-0.3700000047683716,0.2899999916553497,0.0,0.0,0.0,0.0,-0.0,1.2504103183746338,-0.0054532121984857,-1.5640100987152092,0.5127475644267626
1.1985359191894531,0.0,0.0,-0.3700000047683716,0.2899999916553497,0.0,0.0,0.0,0.0,-0.0,1.2604055404663086,-0.0054572587583249,-1.5640199419022565,0.5129419515877635
1.1985359191894531,0.0,0.0,-0.3700000047683716,0.2899999916553497,0.0,0.0,0.0,0.0,-0.0,1.270669937133789,-0.0054330909964725,-1.564030204031693,0.5128605490246778
1.1985359191894531,0.0,0.0,-0.3700000047683716,0.2899999916553497,0.0,0.0,0.0,0.0,-0.0,1.2806086540222168,-0.0054031306079104,-1.5640338713160415,0.5126066804693951
1.1985359191894531,0.0,0.0,-0.3700000047683716,0.2899999916553497,0.0,0.0,0.0,0.0,-0.0,1.2903003692626953,-0.0053673193085675,-1.5640553255204137,0.5126020995026376
1.29693603515625,0.0,0.0,-0.449999988079071,0.2399999946355819,0.0010908305412158,0.0,0.0,0.0,-0.0,1.3006830215454102,-0.0053920233693685,-1.5640397303411049,0.5126621627901351
1.29693603515625,0.0,0.0,-0.449999988079071,0.2399999946355819,0.0010908305412158,0.0,0.0,0.0,-0.0,1.3100786209106445,-0.0054137002667093,-1.5640378199822575,0.5126977769759539
1.29693603515625,0.0,0.0,-0.449999988079071,0.2399999946355819,0.0010908305412158,0.0,0.0,0.0,-0.0,1.320697546005249,-0.0054469257178864,-1.5640238699037623,0.5128764461571169
1.29693603515625,0.0,0.0,-0.449999988079071,0.2399999946355819,0.0010908305412158,0.0,0.0,0.0,-0.0,1.3305933475494385,-0.0054658053406763,-1.5640166814180934,0.5128694397806673
1.29693603515625,0.0,0.0,-0.449999988079071,0.2399999946355819,0.0010908305412158,0.0,0.0,0.0,-0.0,1.3404204845428467,-0.0054561371881804,-1.5640239010828343,0.512733699139792
1.29693603515625,0.0,0.0,-0.449999988079071,0.2399999946355819,0.0010908305412158,0.0,0.0,0.0,-0.0,1.3507788181304932,-0.0054103928062798,-1.564020011298632,0.512890839229598
1.29693603515625,0.0,0.0,-0.449999988079071,0.2399999946355819,0.0010908305412158,0.0,0.0,0.0,-0.0,1.3603203296661377,-0.0053886942805248,-1.5640459872845982,0.5126593062331919
1.29693603515625,0.0,0.0,-0.449999988079071,0.2399999946355819,0.0010908305412158,0.0,0.0,0.0,-0.0,1.3708057403564453,-0.0053953306832094,-1.5640401678255242,0.5127100213608621
1.29693603515625,0.0,0.0,-0.449999988079071,0.2399999946355819,0.0010908305412158,0.0,0.0,0.0,-0.0,1.3805410861968994,-0.0054091238820428,-1.564039040436469,0.5127442938158427
1.29693603515625,0.0,0.0,-0.449999988079071,0.2399999946355819,0.0010908305412158,0.0,0.0,0.0,-0.0,1.3898601531982422,-0.0054406165467902,-1.5640213731415018,0.5128246140863997
1.3975181579589844,0.0,0.0,-0.3899999856948852,0.2599999904632568,0.0021816610824316,0.0,0.0,0.0,-0.0,1.400615930557251,-0.005445994985083,-1.5640217993531222,0.5126424564449653
1.3975181579589844,0.0,0.0,-0.3899999856948852,0.2599999904632568,0.0021816610824316,0.0,0.0,0.0,-0.0,1.4106171131134033,-0.0054505927727328,-1.564026605140805,0.5128429740771319
1.3975181579589844,0.0,0.0,-0.3899999856948852,0.2599999904632568,0.0021816610824316,0.0,0.0,0.0,-0.0,1.4197981357574463,-0.0054301763680271,-1.564018802025182,0.512821485794063
1.3975181579589844,0.0,0.0,-0.3899999856948852,0.2599999904632568,0.0021816610824316,0.0,0.0,0.0,-0.0,1.4303004741668701,-0.0054166666667678,-1.5640213175684885,0.5128393171136595
1.3975181579589844,0.0,0.0,-0.3899999856948852,0.2599999904632568,0.0021816610824316,0.0,0.0,0.0,-0.0,1.4402573108673096,-0.0054137255526089,-1.5640335249499613,0.5127662894582363
1.3975181579589844,0.0,0.0,-0.3899999856948852,0.2599999904632568,0.0021816610824316,0.0,0.0,0.0,-0.0,1.4502811431884766,-0.005418266782732,-1.564037219115954,0.5127520429126275
1.3975181579589844,0.0,0.0,-0.3899999856948852,0.2599999904632568,0.0021816610824316,0.0,0.0,0.0,-0.0,1.460571527481079,-0.0054053205765541,-1.5640420464876577,0.51280729072682
1.3975181579589844,0.0,0.0,-0.3899999856948852,0.2599999904632568,0.0021816610824316,0.0,0.0,0.0,-0.0,1.4703173637390137,-0.0054228463221932,-1.5640305122143543,0.5128322644936606
1.3975181579589844,0.0,0.0,-0.3899999856948852,0.2599999904632568,0.0021816610824316,0.0,0.0,0.0,-0.0,1.4801521301269531,-0.005446067281855,-1.5640295821403003,0.5128544780218421
1.3975181579589844,0.0,0.0,-0.3899999856948852,0.2599999904632568,0.0021816610824316,0.0,0.0,0.0,-0.0,1.4905245304107666,-0.0054491575104863,-1.564038471620843,0.5127639306995542
1.497344970703125,0.0,0.0,-0.4000000059604645,0.2399999946355819,-0.0021816610824316,0.0,0.0,0.0,-0.0,1.5003743171691895,-0.0054296572367118,-1.5640240150147218,0.51276676625422
1.497344970703125,0.0,0.0,-0.4000000059604645,0.2399999946355819,-0.0021816610824316,0.0,0.0,0.0,-0.0,1.5100951194763184,-0.0054083335682273,-1.5640273762190289,0.5129514965688993
1.497344970703125,0.0,0.0,-0.4000000059604645,0.2399999946355819,-0.0021816610824316,0.0,0.0,0.0,-0.0,1.5206177234649658,-0.0053974560775064,-1.5640239550116275,0.5126704633832267
1.497344970703125,0.0,0.0,-0.4000000059604645,0.2399999946355819,-0.0021816610824316,0.0,0.0,0.0,-0.0,1.5298590660095215,-0.0054104138662033,-1.5640329220115,0.5129683809298448
1.497344970703125,0.0,0.0,-0.4000000059604645,0.2399999946355819,-0.0021816610824316,0.0,0.0,0.0,-0.0,1.5401008129119873,-0.0054296761741325,-1.5640408530763847,0.5126915557147013
1.497344970703125,0.0,0.0,-0.4000000059604645,0.2399999946355819,-0.0021816610824316,0.0,0.0,0.0,-0.0,1.5497782230377197,-0.0054364472797048,-1.5640373333753632,0.512733002092007
1.497344970703125,0.0,0.0,-0.4000000059604645,0.2399999946355819,-0.0021816610824316,0.0,0.0,0.0,-0.0,1.5598628520965576,-0.0054255252697581,-1.5640457208583014,0.5126378620269625
1.497344970703125,0.0,0.0,-0.4000000059604645,0.2399999946355819,-0.0021816610824316,0.0,0.0,0.0,-0.0,1.5701830387115479,-0.005408417519948,-1.5640400746041403,0.5128743161917032
1.497344970703125,0.0,0.0,-0.4000000059604645,0.2399999946355819,-0.0021816610824316,0.0,0.0,0.0,-0.0,1.5798158645629883,-0.0054030533092316,-1.564030078020185,0.5127804231013124
1.497344970703125,0.0,0.0,-0.4000000059604645,0.2399999946355819,-0.0021816610824316,0.0,0.0,0.0,-0.0,1.5898938179016113,-0.0054032952583826,-1.5640155587716569,0.5128597773358753
1.5968818664550781,0.0,0.0,-0.3600000143051147,0.2800000011920929,0.0,0.0,0.0,0.0,-0.0,1.5998613834381104,-0.0054155981254233,-1.564006373544711,0.5128785490926443
1.5968818664550781,0.0,0.0,-0.3600000143051147,0.2800000011920929,0.0,0.0,0.0,0.0,-0.0,1.6098792552947998,-0.005429714566052,-1.5640216748216629,0.5128429098052975
1.5968818664550781,0.0,0.0,-0.3600000143051147,0.2800000011920929,0.0,0.0,0.0,0.0,-0.0,1.6204383373260498,-0.0054267674888537,-1.5640324631609723,0.5126971593699933
1.5968818664550781,0.0,0.0,-0.3600000143051147,0.2800000011920929,0.0,0.0,0.0,0.0,-0.0,1.6302738189697266,-0.005419462474227,-1.5640585222382153,0.5127606364061091
1.5968818664550781,0.0,0.0,-0.3600000143051147,0.2800000011920929,0.0,0.0,0.0,0.0,-0.0,1.6400151252746582,-0.0054072777354134,-1.5640506582931717,0.5128170734614316
1.5968818664550781,0.0,0.0,-0.3600000143051147,0.2800000011920929,0.0,0.0,0.0,0.0,-0.0,1.6499614715576172,-0.0054077307569871,-1.564046330135777,0.5127204697037631
1.5968818664550781,0.0,0.0,-0.3600000143051147,0.2800000011920929,0.0,0.0,0.0,0.0,-0.0,1.6599228382110596,-0.0054058775885908,-1.5640259027622232,0.5128352259807907
1.5968818664550781,0.0,0.0,-0.3600000143051147,0.2800000011920929,0.0,0.0,0.0,0.0,-0.0,1.6699602603912354,-0.0054262961625281,-1.5640152208382765,0.5128288377762102
1.5968818664550781,0.0,0.0,-0.3600000143051147,0.2800000011920929,0.0,0.0,0.0,0.0,-0.0,1.6799123287200928,-0.0054301452374089,-1.5640121448842603,0.5129539360319152
1.5968818664550781,0.0,0.0,-0.3600000143051147,0.2800000011920929,0.0,0.0,0.0,0.0,-0.0,1.6899762153625488,-0.0054403004550148,-1.5640310853994923,0.5127831961583412
1.6965293884277415,0.0,0.0,-0.4199999868869781,0.2300000041723251,-0.0032724919728934,0.0,0.0,0.0,-0.0,1.6998367309570312,-0.0054300749486491,-1.5640417074707516,0.5128521128323723
1.6965293884277415,0.0,0.0,-0.4199999868869781,0.2300000041723251,-0.0032724919728934,0.0,0.0,0.0,-0.0,1.7099783420562744,-0.0054171759780849,-1.5640411121623694,0.5125528396120939
1.6965293884277415,0.0,0.0,-0.4199999868869781,0.2300000041723251,-0.0032724919728934,0.0,0.0,0.0,-0.0,1.7199039459228516,-0.0053880071526257,-1.5640585072670314,0.5126547072215768
1.6965293884277415,0.0,0.0,-0.4199999868869781,0.2300000041723251,-0.0032724919728934,0.0,0.0,0.0,-0.0,1.7303838729858398,-0.0054014461355112,-1.5640385537649426,0.51282187646041
1.6965293884277415,0.0,0.0,-0.4199999868869781,0.2300000041723251,-0.0032724919728934,0.0,0.0,0.0,-0.0,1.7404732704162598,-0.0054158046051509,-1.5640161935842922,0.5127615105145882
1.6965293884277415,0.0,0.0,-0.4199999868869781,0.2300000041723251,-0.0032724919728934,0.0,0.0,0.0,-0.0,1.7506682872772217,-0.0054369477777968,-1.5640132896451415,0.5131087100894726
1.6965293884277415,0.0,0.0,-0.4199999868869781,0.2300000041723251,-0.0032724919728934,0.0,0.0,0.0,-0.0,1.7604351043701172,-0.005448725784648,-1.5640190655115394,0.5126758704749401
1.6965293884277415,0.0,0.0,-0.4199999868869781,0.2300000041723251,-0.0032724919728934,0.0,0.0,0.0,-0.0,1.7703404426574707,-0.0054317602568652,-1.564026871761982,0.5128957113933689
1.6965293884277415,0.0,0.0,-0.4199999868869781,0.2300000041723251,-0.0032724919728934,0.0,0.0,0.0,-0.0,1.7805869579315186,-0.0054243105344538,-1.5640353186339295,0.512673112736561
1.6965293884277415,0.0,0.0,-0.4199999868869781,0.2300000041723251,-0.0032724919728934,0.0,0.0,0.0,-0.0,1.7902672290802002,-0.0053850976583575,-1.564052957253522,0.5128249781670895
1.7966537475585938,0.0,0.0,-0.4000000059604645,0.2599999904632568,0.0,0.0,0.0,0.0,-0.0,1.8005774021148682,-0.0053900146866894,-1.5640436707349168,0.5125776751087556
1.7966537475585938,0.0,0.0,-0.4000000059604645,0.2599999904632568,0.0,0.0,0.0,0.0,-0.0,1.8104496002197266,-0.0054205438033298,-1.5640336557598542,0.5126385486479733
1.7966537475585938,0.0,0.0,-0.4000000059604645,0.2599999904632568,0.0,0.0,0.0,0.0,-0.0,1.8204889297485352,-0.0054462556686523,-1.564013924035993,0.5127319495983613
1.7966537475585938,0.0,0.0,-0.4000000059604645,0.2599999904632568,0.0,0.0,0.0,0.0,-0.0,1.830632209777832,-0.0054498236109949,-1.5640284720442694,0.512978694173495
1.7966537475585938,0.0,0.0,-0.4000000059604645,0.2599999904632568,0.0,0.0,0.0,0.0,-0.0,1.8401353359222412,-0.0054315780809501,-1.56400951098626,0.5128442750048399
1.7966537475585938,0.0,0.0,-0.4000000059604645,0.2599999904632568,0.0,0.0,0.0,0.0,-0.0,1.8503057956695557,-0.00542979064331,-1.5640165122882,0.5128129550742375
1.7966537475585938,0.0,0.0,-0.4000000059604645,0.2599999904632568,0.0,0.0,0.0,0.0,-0.0,1.8607470989227295,-0.0054000566581102,-1.5640333912598576,0.5129028696888391
1.7966537475585938,0.0,0.0,-0.4000000059604645,0.2599999904632568,0.0,0.0,0.0,0.0,-0.0,1.8705167770385742,-0.0053965695307909,-1.5640366243563464,0.512748602844812
1.7966537475585938,0.0,0.0,-0.4000000059604645,0.2599999904632568,0.0,0.0,0.0,0.0,-0.0,1.8805058002471924,-0.0054031279991559,-1.5640437440603103,0.5125921117688356
1.7966537475585938,0.0,0.0,-0.4000000059604645,0.2599999904632568,0.0,0.0,0.0,0.0,-0.0,1.8899593353271484,-0.005424737224998,-1.5640362198245108,0.5127778282130848
1.8942222595214915,0.0,0.0,-0.3700000047683716,0.2800000011920929,-0.0021816610824316,0.0,0.0,0.0,-0.0,1.89976167678833,-0.0054306461021483,-1.5640255834777663,0.5127166133856091
1.8942222595214915,0.0,0.0,-0.3700000047683716,0.2800000011920929,-0.0021816610824316,0.0,0.0,0.0,-0.0,1.9100947380065918,-0.0054413576418693,-1.5640114366112905,0.5129083419146637
1.8942222595214915,0.0,0.0,-0.3700000047683716,0.2800000011920929,-0.0021816610824316,0.0,0.0,0.0,-0.0,1.9205448627471924,-0.0054349661605006,-1.564017808971783,0.512855254636615
1.8942222595214915,0.0,0.0,-0.3700000047683716,0.2800000011920929,-0.0021816610824316,0.0,0.0,0.0,-0.0,1.930516004562378,-0.0054234104030455,-1.5640257627336762,0.5126493787951596
1.8942222595214915,0.0,0.0,-0.3700000047683716,0.2800000011920929,-0.0021816610824316,0.0,0.0,0.0,-0.0,1.9405438899993896,-0.0053967569094283,-1.5640274634128757,0.5127184294803477
1.8942222595214915,0.0,0.0,-0.3700000047683716,0.2800000011920929,-0.0021816610824316,0.0,0.0,0.0,-0.0,1.950143814086914,-0.0053899948610581,-1.564041336874895,0.5126730660240895
1.8942222595214915,0.0,0.0,-0.3700000047683716,0.2800000011920929,-0.0021816610824316,0.0,0.0,0.0,-0.0,1.9605011940002441,-0.0054107455703707,-1.56403780614228,0.5125806884701201
1.8942222595214915,0.0,0.0,-0.3700000047683716,0.2800000011920929,-0.0021816610824316,0.0,0.0,0.0,-0.0,1.9703705310821533,-0.0054433818050554,-1.5640361296788494,0.5126357853333179
1.8942222595214915,0.0,0.0,-0.3700000047683716,0.2800000011920929,-0.0021816610824316,0.0,0.0,0.0,-0.0,1.9802227020263672,-0.005445696727426,-1.5640351603620075,0.5128418565930895
1.8942222595214915,0.0,0.0,-0.3700000047683716,0.2800000011920929,-0.0021816610824316,0.0,0.0,0.0,-0.0,1.9903082847595215,-0.0054383096893134,-1.564027509190438,0.512699716351337
1.9943122863769531,0.0,0.0,-0.449999988079071,0.2399999946355819,0.0,0.0,0.0,0.0,-0.0,2.0006213188171387,-0.0054064317078661,-1.5640123526793628,0.5128709140952906
1.9943122863769531,0.0,0.0,-0.449999988079071,0.2399999946355819,0.0,0.0,0.0,0.0,-0.0,2.010209321975708,-0.0054065993832996,-1.5640079958790465,0.5128657093645171
1.9943122863769531,0.0,0.0,-0.449999988079071,0.2399999946355819,0.0,0.0,0.0,0.0,-0.0,2.0201454162597656,-0.0053941275922652,-1.5640094712766155,0.512704202589756
1.9943122863769531,0.0,0.0,-0.449999988079071,0.2399999946355819,0.0,0.0,0.0,0.0,-0.0,2.029902458190918,-0.0054455988533252,-1.5640316646473675,0.5126772893217417
1.9943122863769531,0.0,0.0,-0.449999988079071,0.2399999946355819,0.0,0.0,0.0,0.0,-0.0,2.0399487018585205,-0.005452691602201,-1.5640444497150945,0.5125610389101634
1.9943122863769531,0.0,0.0,-0.449999988079071,0.2399999946355819,0.0,0.0,0.0,0.0,-0.0,2.049952268600464,-0.0054373360225699,-1.5640508746080315,0.5128302666447998
1.9943122863769531,0.0,0.0,-0.449999988079071,0.2399999946355819,0.0,0.0,0.0,0.0,-0.0,2.0597314834594727,-0.0054104446857206,-1.5640379377758562,0.5127334001724434
1.9943122863769531,0.0,0.0,-0.449999988079071,0.2399999946355819,0.0,0.0,0.0,0.0,-0.0,2.069930076599121,-0.0054002475428008,-1.5640181206685109,0.5128762181536631
1.9943122863769531,0.0,0.0,-0.449999988079071,0.2399999946355819,0.0,0.0,0.0,0.0,-0.0,2.0799942016601562,-0.0053910020095915,-1.5640104839001778,0.5128620764060419
1.9943122863769531,0.0,0.0,-0.449999988079071,0.2399999946355819,0.0,0.0,0.0,0.0,-0.0,2.0899980068206787,-0.0054261867023119,-1.5640044559141055,0.5126777392811931
2.0944976806640554,0.0,0.0,-0.4099999964237213,0.270000010728836,0.0010908305412158,0.0,0.0,0.0,-0.0,2.0998775959014893,-0.0054455736211644,-1.564020633316921,0.5127588016050907
2.0944976806640554,0.0,0.0,-0.4099999964237213,0.270000010728836,0.0010908305412158,0.0,0.0,0.0,-0.0,2.110166549682617,-0.0054530564723556,-1.5640335540626418,0.5127104932310202
2.0944976806640554,0.0,0.0,-0.4099999964237213,0.270000010728836,0.0010908305412158,0.0,0.0,0.0,-0.0,2.119894504547119,-0.0054408185278947,-1.5640388326866606,0.5127920110764487
2.0944976806640554,0.0,0.0,-0.4099999964237213,0.270000010728836,0.0010908305412158,0.0,0.0,0.0,-0.0,2.1299986839294434,-0.0054231444490006,-1.5640428404946405,0.5128766829081439
2.0944976806640554,0.0,0.0,-0.4099999964237213,0.270000010728836,0.0010908305412158,0.0,0.0,0.0,-0.0,2.1399922370910645,-0.0054009571536093,-1.5640413994260625,0.5128855737049801
2.0944976806640554,0.0,0.0,-0.4099999964237213,0.270000010728836,0.0010908305412158,0.0,0.0,0.0,-0.0,2.1498587131500244,-0.0054095573954766,-1.564033571719598,0.5129099057087911
2.0944976806640554,0.0,0.0,-0.4099999964237213,0.270000010728836,0.0010908305412158,0.0,0.0,0.0,-0.0,2.1598565578460693,-0.0054010670559751,-1.564014238004329,0.5129325121644595
2.0944976806640554,0.0,0.0,-0.4099999964237213,0.270000010728836,0.0010908305412158,0.0,0.0,0.0,-0.0,2.169877052307129,-0.005433184456155,-1.5640080588740253,0.512806880361053
2.0944976806640554,0.0,0.0,-0.4099999964237213,0.270000010728836,0.0010908305412158,0.0,0.0,0.0,-0.0,2.1799001693725586,-0.0054351387247648,-1.5640201684662844,0.5127765562020539
2.0944976806640554,0.0,0.0,-0.4099999964237213,0.270000010728836,0.0010908305412158,0.0,0.0,0.0,-0.0,2.1899261474609375,-0.0054312773139908,-1.5640315817065142,0.5127355426712682
2.1939010620117188,0.0,0.0,-0.4199999868869781,0.25,0.0010908305412158,0.0,0.0,0.0,-0.0,2.1999435424804688,-0.0054197251180959,-1.5640483265874972,0.5126770238109261
2.1939010620117188,0.0,0.0,-0.4199999868869781,0.25,0.0010908305412158,0.0,0.0,0.0,-0.0,2.2099058628082275,-0.0054047516022283,-1.5640445883138947,0.5126112993945254
2.1939010620117188,0.0,0.0,-0.4199999868869781,0.25,0.0010908305412158,0.0,0.0,0.0,-0.0,2.220082998275757,-0.0054046718186154,-1.5640421955524344,0.5126227800167449
2.1939010620117188,0.0,0.0,-0.4199999868869781,0.25,0.0010908305412158,0.0,0.0,0.0,-0.0,2.23040771484375,-0.0054122274199364,-1.564022566744396,0.5128375470316444
2.1939010620117188,0.0,0.0,-0.4199999868869781,0.25,0.0010908305412158,0.0,0.0,0.0,-0.0,2.2405123710632324,-0.0054161751098348,-1.5640107510763592,0.5129821015267295
2.1939010620117188,0.0,0.0,-0.4199999868869781,0.25,0.0010908305412158,0.0,0.0,0.0,-0.0,2.250378370285034,-0.0054376237406405,-1.5640059416656469,0.512898472576633
2.1939010620117188,0.0,0.0,-0.4199999868869781,0.25,0.0010908305412158,0.0,0.0,0.0,-0.0,2.261016845703125,-0.0054243253074682,-1.5640206790514266,0.5128034818869143
2.1939010620117188,0.0,0.0,-0.4199999868869781,0.25,0.0010908305412158,0.0,0.0,0.0,-0.0,2.2705647945404053,-0.0054234818105733,-1.5640350180083014,0.5128476062957358
2.1939010620117188,0.0,0.0,-0.4199999868869781,0.25,0.0010908305412158,0.0,0.0,0.0,-0.0,2.2802951335906982,-0.0054108162318461,-1.564044839260833,0.5126833865270383
2.1939010620117188,0.0,0.0,-0.4199999868869781,0.25,0.0010908305412158,0.0,0.0,0.0,-0.0,2.290649890899658,-0.0053950235212011,-1.5640322115535168,0.5127175182314556
2.297351837158203,0.0,0.0,-0.3600000143051147,0.2899999916553497,-0.0010908305412158,0.0,0.0,0.0,-0.0,2.300319194793701,-0.0054058984957217,-1.5640304004502166,0.5127068170869218
2.297351837158203,0.0,0.0,-0.3600000143051147,0.2899999916553497,-0.0010908305412158,0.0,0.0,0.0,-0.0,2.310314178466797,-0.0054096207889479,-1.5640164032985628,0.5128983364406262
2.297351837158203,0.0,0.0,-0.3600000143051147,0.2899999916553497,-0.0010908305412158,0.0,0.0,0.0,-0.0,2.3205065727233887,-0.0054290704981237,-1.5640181032283922,0.5128603261101053
2.297351837158203,0.0,0.0,-0.3600000143051147,0.2899999916553497,-0.0010908305412158,0.0,0.0,0.0,-0.0,2.33025860786438,-0.0054230046987192,-1.564014844905253,0.5129214485655246
2.297351837158203,0.0,0.0,-0.3600000143051147,0.2899999916553497,-0.0010908305412158,0.0,0.0,0.0,-0.0,2.340383529663086,-0.0054098402806074,-1.5640335105900016,0.5128056583424142
2.297351837158203,0.0,0.0,-0.3600000143051147,0.2899999916553497,-0.0010908305412158,0.0,0.0,0.0,-0.0,2.350923538208008,-0.0054149015379601,-1.5640486380678948,0.5125940037529227
2.297351837158203,0.0,0.0,-0.3600000143051147,0.2899999916553497,-0.0010908305412158,0.0,0.0,0.0,-0.0,2.360487461090088,-0.0054033628934046,-1.564025098839048,0.5127926599242938
2.297351837158203,0.0,0.0,-0.3600000143051147,0.2899999916553497,-0.0010908305412158,0.0,0.0,0.0,-0.0,2.3705413341522217,-0.0053998346673105,-1.5640345773944773,0.5127116825255412
2.297351837158203,0.0,0.0,-0.3600000143051147,0.2899999916553497,-0.0010908305412158,0.0,0.0,0.0,-0.0,2.3802294731140137,-0.0054266963588858,-1.5640211873102654,0.5128437183785751
2.297351837158203,0.0,0.0,-0.3600000143051147,0.2899999916553497,-0.0010908305412158,0.0,0.0,0.0,-0.0,2.3903236389160156,-0.0054382437504567,-1.5640204354790006,0.5128714660818693
2.3968505859375,0.0,0.0,-0.4399999976158142,0.25,0.0,0.0,0.0,0.0,-0.0,2.4007883071899414,-0.0054477461816695,-1.564029416222284,0.51281361434969
2.3968505859375,0.0,0.0,-0.4399999976158142,0.25,0.0,0.0,0.0,0.0,-0.0,2.4100723266601562,-0.0054237503634197,-1.5640251095772788,0.5129255200199674
2.3968505859375,0.0,0.0,-0.4399999976158142,0.25,0.0,0.0,0.0,0.0,-0.0,2.419796943664551,-0.0053993862114333,-1.5640305065872242,0.5127134749304966
2.3968505859375,0.0,0.0,-0.4399999976158142,0.25,0.0,0.0,0.0,0.0,-0.0,2.4295637607574463,-0.0053903990655191,-1.5640387859881129,0.512791898355838
2.3968505859375,0.0,0.0,-0.4399999976158142,0.25,0.0,0.0,0.0,0.0,-0.0,2.43993878364563,-0.005393818950516,-1.5640357301157135,0.5126316793587041
2.3968505859375,0.0,0.0,-0.4399999976158142,0.25,0.0,0.0,0.0,0.0,-0.0,2.449673652648926,-0.0054320067869029,-1.5640346307118058,0.5127324182257743
2.3968505859375,0.0,0.0,-0.4399999976158142,0.25,0.0,0.0,0.0,0.0,-0.0,2.460448741912842,-0.0054530545207371,-1.5640276236804684,0.5128327418594634
2.3968505859375,0.0,0.0,-0.4399999976158142,0.25,0.0,0.0,0.0,0.0,-0.0,2.4705731868743896,-0.0054449801756512,-1.5640308530792078,0.5128061613606602
2.3968505859375,0.0,0.0,-0.4399999976158142,0.25,0.0,0.0,0.0,0.0,-0.0,2.4804584980010986,-0.0054248884644933,-1.5640184162246469,0.5128572382229116
2.3968505859375,0.0,0.0,-0.4399999976158142,0.25,0.0,0.0,0.0,0.0,-0.0,2.490250825881958,-0.005402369718721,-1.5640359719251178,0.5128551548176944
2.4962692260742188,0.0,0.0,-0.3700000047683716,0.2599999904632568,0.0021816610824316,0.0,0.0,0.0,-0.0,2.500415802001953,-0.0054056240499871,-1.564039474856733,0.5127238525966367
2.4962692260742188,0.0,0.0,-0.3700000047683716,0.2599999904632568,0.0021816610824316,0.0,0.0,0.0,-0.0,2.510281801223755,-0.005401367906411,-1.564041684132901,0.5125669703150183
2.4962692260742188,0.0,0.0,-0.3700000047683716,0.2599999904632568,0.0021816610824316,0.0,0.0,0.0,-0.0,2.5206689834594727,-0.0054239180763452,-1.5640301675025892,0.5128532203651194
2.4962692260742188,0.0,0.0,-0.3700000047683716,0.2599999904632568,0.0021816610824316,0.0,0.0,0.0,-0.0,2.5304572582244873,-0.0054388940105798,-1.564030224858898,0.5128103907147336
2.4962692260742188,0.0,0.0,-0.3700000047683716,0.2599999904632568,0.0021816610824316,0.0,0.0,0.0,-0.0,2.5400469303131104,-0.0054364145403036,-1.5640271746784231,0.5128429769714854
2.4962692260742188,0.0,0.0,-0.3700000047683716,0.2599999904632568,0.0021816610824316,0.0,0.0,0.0,-0.0,2.5502283573150635,-0.0054329177634447,-1.5640327256454347,0.5127014643458537
2.4962692260742188,0.0,0.0,-0.3700000047683716,0.2599999904632568,0.0021816610824316,0.0,0.0,0.0,-0.0,2.5603837966918945,-0.0054111451138907,-1.564023324188868,0.5128489729105855
2.4962692260742188,0.0,0.0,-0.3700000047683716,0.2599999904632568,0.0021816610824316,0.0,0.0,0.0,-0.0,2.570312976837158,-0.0054087848645312,-1.564041944915603,0.5128509260557628
2.4962692260742188,0.0,0.0,-0.3700000047683716,0.2599999904632568,0.0021816610824316,0.0,0.0,0.0,-0.0,2.5802903175354004,-0.0053902882609524,-1.5640467620767562,0.5128946565111091
2.4962692260742188,0.0,0.0,-0.3700000047683716,0.2599999904632568,0.0021816610824316,0.0,0.0,0.0,-0.0,2.5899672508239746,-0.0054129966066052,-1.564037149851258,0.5126474462800985
2.5999412536621094,0.0,0.0,-0.4300000071525574,0.2300000041723251,-0.0021816610824316,0.0,0.0,0.0,-0.0,2.5998902320861816,-0.0054279162302056,-1.5640326566189855,0.5126042688796337
2.5999412536621094,0.0,0.0,-0.4300000071525574,0.2300000041723251,-0.0021816610824316,0.0,0.0,0.0,-0.0,2.6100895404815674,-0.0054328698661822,-1.5640280200025725,0.5127486969171207
2.5999412536621094,0.0,0.0,-0.4300000071525574,0.2300000041723251,-0.0021816610824316,0.0,0.0,0.0,-0.0,2.62001371383667,-0.0054355846558652,-1.5640278457843622,0.5127304841472505
2.5999412536621094,0.0,0.0,-0.4300000071525574,0.2300000041723251,-0.0021816610824316,0.0,0.0,0.0,-0.0,2.630385398864746,-0.0054308325774299,-1.5640320025385257,0.5129624388589011
2.5999412536621094,0.0,0.0,-0.4300000071525574,0.2300000041723251,-0.0021816610824316,0.0,0.0,0.0,-0.0,2.640401601791382,-0.005404293470154,-1.5640331803485774,0.512777090658775
2.5999412536621094,0.0,0.0,-0.4300000071525574,0.2300000041723251,-0.0021816610824316,0.0,0.0,0.0,-0.0,2.650336503982544,-0.0053938887827763,-1.5640101018397057,0.5129674227280883
2.5999412536621094,0.0,0.0,-0.4300000071525574,0.2300000041723251,-0.0021816610824316,0.0,0.0,0.0,-0.0,2.6606926918029785,-0.0054036713859876,-1.5640199147840756,0.5129522328469452
2.5999412536621094,0.0,0.0,-0.4300000071525574,0.2300000041723251,-0.0021816610824316,0.0,0.0,0.0,-0.0,2.670715093612671,-0.0054157118578949,-1.5640401911011876,0.5126197066633785
2.5999412536621094,0.0,0.0,-0.4300000071525574,0.2300000041723251,-0.0021816610824316,0.0,0.0,0.0,-0.0,2.680549144744873,-0.0054341672554792,-1.5640414275114316,0.51267993320873
2.5999412536621094,0.0,0.0,-0.4300000071525574,0.2300000041723251,-0.0021816610824316,0.0,0.0,0.0,-0.0,2.6905527114868164,-0.00543233847071,-1.5640467682565085,0.5126790988836802
2.6963882446289062,0.0,0.0,-0.4300000071525574,0.25,0.0032724919728934,0.0,0.0,0.0,-0.0,2.7005996704101562,-0.0054293037770387,-1.5640322910716713,0.5127061970640161
2.6963882446289062,0.0,0.0,-0.4300000071525574,0.25,0.0032724919728934,0.0,0.0,0.0,-0.0,2.710397481918335,-0.005410815049146,-1.564012034242248,0.5127951534969326
2.6963882446289062,0.0,0.0,-0.4300000071525574,0.25,0.0032724919728934,0.0,0.0,0.0,-0.0,2.720407485961914,-0.0054103530697782,-1.564029315463886,0.5128794893377837
2.6963882446289062,0.0,0.0,-0.4300000071525574,0.25,0.0032724919728934,0.0,0.0,0.0,-0.0,2.730234146118164,-0.0054042300653086,-1.5640053484910612,0.5129143431945481
2.6963882446289062,0.0,0.0,-0.4300000071525574,0.25,0.0032724919728934,0.0,0.0,0.0,-0.0,2.740529775619507,-0.0054198006844761,-1.5640173227153296,0.5127316688296754
2.6963882446289062,0.0,0.0,-0.4300000071525574,0.25,0.0032724919728934,0.0,0.0,0.0,-0.0,2.7503628730773926,-0.0054387090314398,-1.5640363982552978,0.5127848439373554
2.6963882446289062,0.0,0.0,-0.4300000071525574,0.25,0.0032724919728934,0.0,0.0,0.0,-0.0,2.760427713394165,-0.0054275705365547,-1.5640459282587558,0.5126712937268342
2.6963882446289062,0.0,0.0,-0.4300000071525574,0.25,0.0032724919728934,0.0,0.0,0.0,-0.0,2.7707509994506836,-0.0054161511201852,-1.5640300892257355,0.5127196077334464
2.6963882446289062,0.0,0.0,-0.4300000071525574,0.25,0.0032724919728934,0.0,0.0,0.0,-0.0,2.7804949283599854,-0.0053985948117962,-1.5640322456156568,0.5127830765990471
2.6963882446289062,0.0,0.0,-0.4300000071525574,0.25,0.0032724919728934,0.0,0.0,0.0,-0.0,2.790367603302002,-0.0054056490280802,-1.5640270541287782,0.5129060979895828
2.6963882446289062,0.0,0.0,-0.4300000071525574,0.25,0.0032724919728934,0.0,0.0,0.0,-0.0,2.8003933429718018,-0.0054170489415263,-1.564019639770787,0.5128250191762572
2.7995643615722656,0.0,0.0,-0.4099999964237213,0.2599999904632568,0.0010908305412158,0.0,0.0,0.0,-0.0,2.8105592727661133,-0.0054238568942598,-1.5640299142169307,0.5128762170543899
2.7995643615722656,0.0,0.0,-0.4099999964237213,0.2599999904632568,0.0010908305412158,0.0,0.0,0.0,-0.0,2.820465326309204,-0.0054176762475835,-1.5640246304802818,0.5127316954529005
2.7995643615722656,0.0,0.0,-0.4099999964237213,0.2599999904632568,0.0010908305412158,0.0,0.0,0.0,-0.0,2.8303396701812744,-0.0054456326516462,-1.5640338217348773,0.5127490789301652
2.7995643615722656,0.0,0.0,-0.4099999964237213,0.2599999904632568,0.0010908305412158,0.0,0.0,0.0,-0.0,2.8393354415893555,-0.0054337553019794,-1.5640459485840754,0.5125483537110186
2.7995643615722656,0.0,0.0,-0.4099999964237213,0.2599999904632568,0.0010908305412158,0.0,0.0,0.0,-0.0,2.8503973484039307,-0.0054201831800415,-1.5640546885972733,0.5127552457911105
2.7995643615722656,0.0,0.0,-0.4099999964237213,0.2599999904632568,0.0010908305412158,0.0,0.0,0.0,-0.0,2.8609604835510254,-0.0054104474294601,-1.5640349344850062,0.5127929403729395
2.7995643615722656,0.0,0.0,-0.4099999964237213,0.2599999904632568,0.0010908305412158,0.0,0.0,0.0,-0.0,2.87058424949646,-0.005407909032249,-1.564035326390996,0.5127968659057
2.7995643615722656,0.0,0.0,-0.4099999964237213,0.2599999904632568,0.0010908305412158,0.0,0.0,0.0,-0.0,2.88065242767334,-0.0054176526584956,-1.564021233563167,0.5129018782348674
2.7995643615722656,0.0,0.0,-0.4099999964237213,0.2599999904632568,0.0010908305412158,0.0,0.0,0.0,-0.0,2.8905508518218994,-0.0054276142835976,-1.564027412638911,0.5129544524384744
2.896862030029297,0.0,0.0,-0.4399999976158142,0.25,0.0,0.0,0.0,0.0,-0.0,2.900542974472046,-0.0054323588051065,-1.5640216630681028,0.5127878455776557
2.896862030029297,0.0,0.0,-0.4399999976158142,0.25,0.0,0.0,0.0,0.0,-0.0,2.910409927368164,-0.0054243546558202,-1.5640378971084286,0.5128256905950423
2.896862030029297,0.0,0.0,-0.4399999976158142,0.25,0.0,0.0,0.0,0.0,-0.0,2.920485258102417,-0.0054238517885272,-1.5640428028736564,0.5127315407383213
2.896862030029297,0.0,0.0,-0.4399999976158142,0.25,0.0,0.0,0.0,0.0,-0.0,2.930354595184326,-0.0054038694830861,-1.5640530285625152,0.5126152996772384
2.896862030029297,0.0,0.0,-0.4399999976158142,0.25,0.0,0.0,0.0,0.0,-0.0,2.940420150756836,-0.0053973045335334,-1.5640464083459038,0.5126009462790383
2.896862030029297,0.0,0.0,-0.4399999976158142,0.25,0.0,0.0,0.0,0.0,-0.0,2.9503533840179443,-0.0053966006059505,-1.5640242333988286,0.5129649019931992
2.896862030029297,0.0,0.0,-0.4399999976158142,0.25,0.0,0.0,0.0,0.0,-0.0,2.9601826667785645,-0.0054126089582835,-1.5640181613356348,0.5128336652745269
2.896862030029297,0.0,0.0,-0.4399999976158142,0.25,0.0,0.0,0.0,0.0,-0.0,2.9705402851104736,-0.005441268752734,-1.564007278742225,0.5129708222283607
2.896862030029297,0.0,0.0,-0.4399999976158142,0.25,0.0,0.0,0.0,0.0,-0.0,2.9807677268981934,-0.0054281895786349,-1.5640143746016617,0.5128067475331097
2.896862030029297,0.0,0.0,-0.4399999976158142,0.25,0.0,0.0,0.0,0.0,-0.0,2.990361452102661,-0.0054337351974972,-1.5640435459149868,0.5126881744407087
2.997058868408203,0.0,0.0,-0.3799999952316284,0.270000010728836,0.0021816610824316,0.0,0.0,0.0,-0.0,3.0003888607025146,-0.0054113292800605,-1.5640540314836058,0.5124974296347256
2.997058868408203,0.0,0.0,-0.3799999952316284,0.270000010728836,0.0021816610824316,0.0,0.0,0.0,-0.0,3.010432243347168,-0.0053965943066179,-1.5640498117977568,0.5126152737827159
2.997058868408203,0.0,0.0,-0.3799999952316284,0.270000010728836,0.0021816610824316,0.0,0.0,0.0,-0.0,3.0202176570892334,-0.0053932719614451,-1.5640490354581706,0.5127656208541098
2.997058868408203,0.0,0.0,-0.3799999952316284,0.270000010728836,0.0021816610824316,0.0,0.0,0.0,-0.0,3.030264139175415,-0.0054115652953814,-1.5640300763435118,0.5128998413488625
2.997058868408203,0.0,0.0,-0.3799999952316284,0.270000010728836,0.0021816610824316,0.0,0.0,0.0,-0.0,3.0401487350463867,-0.0054196230806834,-1.564010168754894,0.5130584398388631
2.997058868408203,0.0,0.0,-0.3799999952316284,0.270000010728836,0.0021816610824316,0.0,0.0,0.0,-0.0,3.050157070159912,-0.0054463420346429,-1.564026722348696,0.5128025221905455
2.997058868408203,0.0,0.0,-0.3799999952316284,0.270000010728836,0.0021816610824316,0.0,0.0,0.0,-0.0,3.060492515563965,-0.00543318174495,-1.56402916493956,0.5127005892714575
2.997058868408203,0.0,0.0,-0.3799999952316284,0.270000010728836,0.0021816610824316,0.0,0.0,0.0,-0.0,3.0705103874206543,-0.0054084596055672,-1.564047564019401,0.5128881382482426
2.997058868408203,0.0,0.0,-0.3799999952316284,0.270000010728836,0.0021816610824316,0.0,0.0,0.0,-0.0,3.0805609226226807,-0.0053780777603485,-1.5640675316496888,0.5126565072734194
2.997058868408203,0.0,0.0,-0.3799999952316284,0.270000010728836,0.0021816610824316,0.0,0.0,0.0,-0.0,3.0904645919799805,-0.0053823629221304,-1.5640619018518227,0.5125746454473337
3.097156524658203,0.0,0.0,-0.4000000059604645,0.2599999904632568,0.0,0.0,0.0,0.0,-0.0,3.100473642349243,-0.0054018897495204,-1.564045573524358,0.5126290689614589
3.097156524658203,0.0,0.0,-0.4000000059604645,0.2599999904632568,0.0,0.0,0.0,0.0,-0.0,3.110276937484741,-0.0054281754908306,-1.5640263286488525,0.5128880461461212
3.097156524658203,0.0,0.0,-0.4000000059604645,0.2599999904632568,0.0,0.0,0.0,0.0,-0.0,3.1204519271850586,-0.0054346147512003,-1.5640246049244748,0.5129136948538199
3.097156524658203,0.0,0.0,-0.4000000059604645,0.2599999904632568,0.0,0.0,0.0,0.0,-0.0,3.1304969787597656,-0.0054380607374824,-1.564021315370454,0.5128795742450136
3.097156524658203,0.0,0.0,-0.4000000059604645,0.2599999904632568,0.0,0.0,0.0,0.0,-0.0,3.14046311378479,-0.0054190273805631,-1.5640300282920516,0.5127498117276412
3.097156524658203,0.0,0.0,-0.4000000059604645,0.2599999904632568,0.0,0.0,0.0,0.0,-0.0,3.1504743099212646,-0.0054063652847817,-1.5640445957711708,0.5127233999377298
3.097156524658203,0.0,0.0,-0.4000000059604645,0.2599999904632568,0.0,0.0,0.0,0.0,-0.0,3.160414457321167,-0.0053859657191303,-1.564058788552482,0.5125851570541766
3.097156524658203,0.0,0.0,-0.4000000059604645,0.2599999904632568,0.0,0.0,0.0,0.0,-0.0,3.1702311038970947,-0.0053924195128012,-1.5640590970687185,0.5125608642232367
3.097156524658203,0.0,0.0,-0.4000000059604645,0.2599999904632568,0.0,0.0,0.0,0.0,-0.0,3.180461883544922,-0.0054173871384181,-1.5640478399943272,0.5127771758397073
3.097156524658203,0.0,0.0,-0.4000000059604645,0.2599999904632568,0.0,0.0,0.0,0.0,-0.0,3.1903865337371826,-0.0054434628606737,-1.5640283218872522,0.5128312404911795
3.1967926025390696,0.0,0.0,-0.4199999868869781,0.25,0.0021816610824316,0.0,0.0,0.0,-0.0,3.2003579139709473,-0.005428004152445,-1.5640230655564982,0.5127954366036572
3.1967926025390696,0.0,0.0,-0.4199999868869781,0.25,0.0021816610824316,0.0,0.0,0.0,-0.0,3.2104363441467285,-0.0054182243882199,-1.56401614425379,0.5129823618336637
3.1967926025390696,0.0,0.0,-0.4199999868869781,0.25,0.0021816610824316,0.0,0.0,0.0,-0.0,3.2204267978668213,-0.0054072278592139,-1.564040296004758,0.5129035636330483
3.1967926025390696,0.0,0.0,-0.4199999868869781,0.25,0.0021816610824316,0.0,0.0,0.0,-0.0,3.230461597442627,-0.0054100211356942,-1.5640493122264596,0.5127837971551779
3.1967926025390696,0.0,0.0,-0.4199999868869781,0.25,0.0021816610824316,0.0,0.0,0.0,-0.0,3.240269899368286,-0.0053995503841378,-1.564055673462014,0.5127160511157419
3.1967926025390696,0.0,0.0,-0.4199999868869781,0.25,0.0021816610824316,0.0,0.0,0.0,-0.0,3.25024151802063,-0.0054171331887926,-1.5640453831736647,0.5126151836522633
3.1967926025390696,0.0,0.0,-0.4199999868869781,0.25,0.0021816610824316,0.0,0.0,0.0,-0.0,3.26025652885437,-0.0054268768013989,-1.5640356058306126,0.5128012686518865
3.1967926025390696,0.0,0.0,-0.4199999868869781,0.25,0.0021816610824316,0.0,0.0,0.0,-0.0,3.270465850830078,-0.0054380886899975,-1.5640209239582292,0.5127388245055938
3.1967926025390696,0.0,0.0,-0.4199999868869781,0.25,0.0021816610824316,0.0,0.0,0.0,-0.0,3.28024959564209,-0.0054219623732048,-1.5640262353133698,0.5129248214189388
3.2934722900390696,0.0,0.0,-0.3600000143051147,0.2899999916553497,0.0021816610824316,0.0,0.0,0.0,-0.0,3.290538787841797,-0.0054122794860766,-1.564022381486847,0.5128720217658559
3.2934722900390696,0.0,0.0,-0.3600000143051147,0.2899999916553497,0.0021816610824316,0.0,0.0,0.0,-0.0,3.300316333770752,-0.0053938679994813,-1.5640333510071065,0.5127191619742001
3.2934722900390696,0.0,0.0,-0.3600000143051147,0.2899999916553497,0.0021816610824316,0.0,0.0,0.0,-0.0,3.31026554107666,-0.0053933262925126,-1.5640462745227104,0.5128270737220954
3.2934722900390696,0.0,0.0,-0.3600000143051147,0.2899999916553497,0.0021816610824316,0.0,0.0,0.0,-0.0,3.3204076290130615,-0.0053918314803433,-1.5640509271279366,0.5127072757604991
3.2934722900390696,0.0,0.0,-0.3600000143051147,0.2899999916553497,0.0021816610824316,0.0,0.0,0.0,-0.0,3.3301937580108643,-0.0054171408582669,-1.5640310899313032,0.5127839502850386
3.2934722900390696,0.0,0.0,-0.3600000143051147,0.2899999916553497,0.0021816610824316,0.0,0.0,0.0,-0.0,3.3398501873016357,-0.0054317426631246,-1.5640324121540297,0.5126356210316455
3.2934722900390696,0.0,0.0,-0.3600000143051147,0.2899999916553497,0.0021816610824316,0.0,0.0,0.0,-0.0,3.350241184234619,-0.0054406046667577,-1.5640257359248435,0.5127814663293071
3.2934722900390696,0.0,0.0,-0.3600000143051147,0.2899999916553497,0.0021816610824316,0.0,0.0,0.0,-0.0,3.3599889278411865,-0.0054152429259892,-1.564028426726183,0.5128783846786963
3.2934722900390696,0.0,0.0,-0.3600000143051147,0.2899999916553497,0.0021816610824316,0.0,0.0,0.0,-0.0,3.369982957839966,-0.0054146546501402,-1.5640171509895855,0.5129342150250052
3.2934722900390696,0.0,0.0,-0.3600000143051147,0.2899999916553497,0.0021816610824316,0.0,0.0,0.0,-0.0,3.37996244430542,-0.0054081629655487,-1.5640323053722394,0.5127044795396098
3.2934722900390696,0.0,0.0,-0.3600000143051147,0.2899999916553497,0.0021816610824316,0.0,0.0,0.0,-0.0,3.3898093700408936,-0.0054092653095806,-1.564041699696734,0.512705336536121
3.395732879638672,0.0,0.0,-0.3799999952316284,0.2899999916553497,0.0,0.0,0.0,0.0,-0.0,3.3999598026275635,-0.0054116298956117,-1.5640291789280067,0.5127967881796708
3.395732879638672,0.0,0.0,-0.3799999952316284,0.2899999916553497,0.0,0.0,0.0,0.0,-0.0,3.4100399017333984,-0.0054188423209734,-1.5640386938045028,0.5128341240069229
3.395732879638672,0.0,0.0,-0.3799999952316284,0.2899999916553497,0.0,0.0,0.0,0.0,-0.0,3.4200522899627686,-0.0054281033045662,-1.5640326295256584,0.5127729305912752
3.395732879638672,0.0,0.0,-0.3799999952316284,0.2899999916553497,0.0,0.0,0.0,0.0,-0.0,3.429957628250122,-0.0054209127876763,-1.5640267575148,0.5130000222373573
3.395732879638672,0.0,0.0,-0.3799999952316284,0.2899999916553497,0.0,0.0,0.0,0.0,-0.0,3.440039873123169,-0.0054142634161171,-1.5640236547844428,0.512748961414152
3.395732879638672,0.0,0.0,-0.3799999952316284,0.2899999916553497,0.0,0.0,0.0,0.0,-0.0,3.4500250816345215,-0.0054077911509801,-1.564033015710414,0.512858515163024
3.395732879638672,0.0,0.0,-0.3799999952316284,0.2899999916553497,0.0,0.0,0.0,0.0,-0.0,3.4600279331207275,-0.0054042199465708,-1.5640368523338437,0.5128737978905399
3.395732879638672,0.0,0.0,-0.3799999952316284,0.2899999916553497,0.0,0.0,0.0,0.0,-0.0,3.470114231109619,-0.0054220697017143,-1.5640323275776191,0.5127179651289144
3.395732879638672,0.0,0.0,-0.3799999952316284,0.2899999916553497,0.0,0.0,0.0,0.0,-0.0,3.479857921600342,-0.0054316120879355,-1.5640298073921384,0.5126686331856943
3.395732879638672,0.0,0.0,-0.3799999952316284,0.2899999916553497,0.0,0.0,0.0,0.0,-0.0,3.4900498390197754,-0.0054329117582292,-1.5640353046355313,0.5127613919135942
3.4931907653808594,0.0,0.0,-0.4000000059604645,0.25,0.0010908305412158,0.0,0.0,0.0,-0.0,3.500009536743164,-0.0054273129223489,-1.5640166021985238,0.5127212679269013
3.4931907653808594,0.0,0.0,-0.4000000059604645,0.25,0.0010908305412158,0.0,0.0,0.0,-0.0,3.5100367069244385,-0.0054278167765156,-1.564028609361916,0.5128756735356127
3.4931907653808594,0.0,0.0,-0.4000000059604645,0.25,0.0010908305412158,0.0,0.0,0.0,-0.0,3.5199623107910156,-0.0054169409701743,-1.5640291038876877,0.5129558241729728
3.4931907653808594,0.0,0.0,-0.4000000059604645,0.25,0.0010908305412158,0.0,0.0,0.0,-0.0,3.5299863815307617,-0.0054168044615942,-1.564044920548601,0.5126914553508168
3.4931907653808594,0.0,0.0,-0.4000000059604645,0.25,0.0010908305412158,0.0,0.0,0.0,-0.0,3.5403692722320557,-0.0054031336653366,-1.5640516871236736,0.512788511918451
3.4931907653808594,0.0,0.0,-0.4000000059604645,0.25,0.0010908305412158,0.0,0.0,0.0,-0.0,3.550004005432129,-0.0054111768588424,-1.564035712720975,0.5128414174718362
3.4931907653808594,0.0,0.0,-0.4000000059604645,0.25,0.0010908305412158,0.0,0.0,0.0,-0.0,3.5606563091278076,-0.0054100732874156,-1.5640351325781918,0.5127755429605099
3.4931907653808594,0.0,0.0,-0.4000000059604645,0.25,0.0010908305412158,0.0,0.0,0.0,-0.0,3.5706121921539307,-0.0054222564348758,-1.5640200403744409,0.5128521978570922
3.4931907653808594,0.0,0.0,-0.4000000059604645,0.25,0.0010908305412158,0.0,0.0,0.0,-0.0,3.580646276473999,-0.0054283717819885,-1.564023071959704,0.5128473842139215
3.4931907653808594,0.0,0.0,-0.4000000059604645,0.25,0.0010908305412158,0.0,0.0,0.0,-0.0,3.590205430984497,-0.0054253040438084,-1.5640335464744444,0.5128684720838473
3.5933456420898438,0.0,0.0,-0.4300000071525574,0.2199999988079071,0.0,0.0,0.0,0.0,-0.0,3.600661516189575,-0.0054269195952657,-1.5640281677942731,0.5128254129386771
3.5933456420898438,0.0,0.0,-0.4300000071525574,0.2199999988079071,0.0,0.0,0.0,0.0,-0.0,3.6105337142944336,-0.0054104498480687,-1.5640312344215137,0.5129295123453501
3.5933456420898438,0.0,0.0,-0.4300000071525574,0.2199999988079071,0.0,0.0,0.0,0.0,-0.0,3.6205203533172607,-0.0054036792355968,-1.56402988643618,0.512933339333249
3.5933456420898438,0.0,0.0,-0.4300000071525574,0.2199999988079071,0.0,0.0,0.0,0.0,-0.0,3.6303141117095947,-0.0054103061861552,-1.5640492999385749,0.5127112636089639
3.5933456420898438,0.0,0.0,-0.4300000071525574,0.2199999988079071,0.0,0.0,0.0,0.0,-0.0,3.6402690410614014,-0.0054273438808987,-1.5640486372321816,0.5127254919964529
3.5933456420898438,0.0,0.0,-0.4300000071525574,0.2199999988079071,0.0,0.0,0.0,0.0,-0.0,3.650231122970581,-0.0054446726165246,-1.5640437920641312,0.5126746881284834
3.5933456420898438,0.0,0.0,-0.4300000071525574,0.2199999988079071,0.0,0.0,0.0,0.0,-0.0,3.6605758666992188,-0.0054332606568464,-1.564025827877034,0.5127603266871148
3.5933456420898438,0.0,0.0,-0.4300000071525574,0.2199999988079071,0.0,0.0,0.0,0.0,-0.0,3.670468330383301,-0.0054041703843619,-1.5640232563792014,0.5129788537903973
3.5933456420898438,0.0,0.0,-0.4300000071525574,0.2199999988079071,0.0,0.0,0.0,0.0,-0.0,3.6805105209350586,-0.0053967251612135,-1.564027668817191,0.5129234092305225
3.5933456420898438,0.0,0.0,-0.4300000071525574,0.2199999988079071,0.0,0.0,0.0,0.0,-0.0,3.690488576889038,-0.0053969458779398,-1.5640324499289646,0.5128386602122448
3.6932220458984375,0.0,0.0,-0.3799999952316284,0.270000010728836,0.0,0.0,0.0,0.0,-0.0,3.7004549503326416,-0.0054127629104605,-1.56404150894688,0.512841889878966
3.6932220458984375,0.0,0.0,-0.3799999952316284,0.270000010728836,0.0,0.0,0.0,0.0,-0.0,3.710298538208008,-0.0054375271370376,-1.5640341808128453,0.5125867654658193
3.6932220458984375,0.0,0.0,-0.3799999952316284,0.270000010728836,0.0,0.0,0.0,0.0,-0.0,3.720449447631836,-0.005433949569373,-1.5640429069547663,0.512613295761
3.6932220458984375,0.0,0.0,-0.3799999952316284,0.270000010728836,0.0,0.0,0.0,0.0,-0.0,3.7302968502044678,-0.0054242257836607,-1.5640285150515507,0.5125564110901434
3.6932220458984375,0.0,0.0,-0.3799999952316284,0.270000010728836,0.0,0.0,0.0,0.0,-0.0,3.740360736846924,-0.0054117955908572,-1.5640246897103582,0.5127594630827582
3.6932220458984375,0.0,0.0,-0.3799999952316284,0.270000010728836,0.0,0.0,0.0,0.0,-0.0,3.750507116317749,-0.0054054072897583,-1.5640334200586343,0.5129042483682831
3.6932220458984375,0.0,0.0,-0.3799999952316284,0.270000010728836,0.0,0.0,0.0,0.0,-0.0,3.76020884513855,-0.0054080519582749,-1.56403707629848,0.512803408905329
3.6932220458984375,0.0,0.0,-0.3799999952316284,0.270000010728836,0.0,0.0,0.0,0.0,-0.0,3.7705860137939453,-0.0054095966478233,-1.564022719566981,0.512715303034487
3.6932220458984375,0.0,0.0,-0.3799999952316284,0.270000010728836,0.0,0.0,0.0,0.0,-0.0,3.7807297706604004,-0.0054216221852612,-1.5640336135578357,0.5129078655607897
3.6932220458984375,0.0,0.0,-0.3799999952316284,0.270000010728836,0.0,0.0,0.0,0.0,-0.0,3.7902839183807373,-0.0054306936981587,-1.5640324667431462,0.5127153580943682
3.79315185546875,0.0,0.0,-0.4300000071525574,0.2300000041723251,-0.0010908305412158,0.0,0.0,0.0,-0.0,3.8005502223968506,-0.0054237062869991,-1.5640334442823665,0.5127088611841001
3.79315185546875,0.0,0.0,-0.4300000071525574,0.2300000041723251,-0.0010908305412158,0.0,0.0,0.0,-0.0,3.8105268478393555,-0.0054249063568896,-1.564043676697911,0.5126986793543322
3.79315185546875,0.0,0.0,-0.4300000071525574,0.2300000041723251,-0.0010908305412158,0.0,0.0,0.0,-0.0,3.820495367050171,-0.0054174518928399,-1.5640339277997697,0.5128755047039798
3.79315185546875,0.0,0.0,-0.4300000071525574,0.2300000041723251,-0.0010908305412158,0.0,0.0,0.0,-0.0,3.8304173946380615,-0.0054149944945691,-1.5640278374563934,0.5129327235474831
3.79315185546875,0.0,0.0,-0.4300000071525574,0.2300000041723251,-0.0010908305412158,0.0,0.0,0.0,-0.0,3.8402085304260254,-0.0054114992505567,-1.5640250604142822,0.5129982257645801
3.79315185546875,0.0,0.0,-0.4300000071525574,0.2300000041723251,-0.0010908305412158,0.0,0.0,0.0,-0.0,3.8502817153930664,-0.0054196136189497,-1.564022436853361,0.5128486530095154
3.79315185546875,0.0,0.0,-0.4300000071525574,0.2300000041723251,-0.0010908305412158,0.0,0.0,0.0,-0.0,3.86030912399292,-0.0054295187818503,-1.5640145902607057,0.5127793497079826
3.79315185546875,0.0,0.0,-0.4300000071525574,0.2300000041723251,-0.0010908305412158,0.0,0.0,0.0,-0.0,3.8705015182495117,-0.005440124093448,-1.56404570646477,0.5126818810654232
3.79315185546875,0.0,0.0,-0.4300000071525574,0.2300000041723251,-0.0010908305412158,0.0,0.0,0.0,-0.0,3.880784511566162,-0.0054427965208667,-1.564032564679935,0.5126863548279926
3.79315185546875,0.0,0.0,-0.4300000071525574,0.2300000041723251,-0.0010908305412158,0.0,0.0,0.0,-0.0,3.8903307914733887,-0.0054243133965811,-1.5640447463032132,0.512619102237526
3.8933372497558594,0.0,0.0,-0.3499999940395355,0.25,-0.0010908305412158,0.0,0.0,0.0,-0.0,3.900324821472168,-0.0054149977668417,-1.5640224940025624,0.5128882202288062
3.8933372497558594,0.0,0.0,-0.3499999940395355,0.25,-0.0010908305412158,0.0,0.0,0.0,-0.0,3.9102258682250977,-0.0054010041488389,-1.564023481600915,0.5128441412074631
3.8933372497558594,0.0,0.0,-0.3499999940395355,0.25,-0.0010908305412158,0.0,0.0,0.0,-0.0,3.920226812362671,-0.0054167248333905,-1.5640293154676028,0.512865480181182
3.8933372497558594,0.0,0.0,-0.3499999940395355,0.25,-0.0010908305412158,0.0,0.0,0.0,-0.0,3.930312395095825,-0.005425082705918,-1.5640315296692628,0.5127407524312916
3.8933372497558594,0.0,0.0,-0.3499999940395355,0.25,-0.0010908305412158,0.0,0.0,0.0,-0.0,3.94020938873291,-0.0054320508033986,-1.564030858118306,0.5127859755819516
3.8933372497558594,0.0,0.0,-0.3499999940395355,0.25,-0.0010908305412158,0.0,0.0,0.0,-0.0,3.9506938457489014,-0.0054246892839492,-1.5640258901412136,0.5127239037818672
3.8933372497558594,0.0,0.0,-0.3499999940395355,0.25,-0.0010908305412158,0.0,0.0,0.0,-0.0,3.9602110385894775,-0.0054300683130044,-1.5640281427748608,0.5127815574726104
3.8933372497558594,0.0,0.0,-0.3499999940395355,0.25,-0.0010908305412158,0.0,0.0,0.0,-0.0,3.9705569744110107,-0.0054282236263899,-1.564022360240354,0.5128391954724982
3.8933372497558594,0.0,0.0,-0.3499999940395355,0.25,-0.0010908305412158,0.0,0.0,0.0,-0.0,3.980264186859131,-0.005420820635054,-1.5640321791175955,0.5128890111954093
3.8933372497558594,0.0,0.0,-0.3499999940395355,0.25,-0.0010908305412158,0.0,0.0,0.0,-0.0,3.9902150630950928,-0.0054221511757312,-1.5640344404684643,0.5128394405354816
3.992778778076172,0.0,0.0,-0.4399999976158142,0.2300000041723251,0.0010908305412158,0.0,0.0,0.0,-0.0,4.0001890659332275,-0.0054149777194388,-1.5640253718977386,0.5126583730863734
3.992778778076172,0.0,0.0,-0.4399999976158142,0.2300000041723251,0.0010908305412158,0.0,0.0,0.0,-0.0,4.0104827880859375,-0.0054134119601044,-1.5640282292297023,0.5127749596988695
3.992778778076172,0.0,0.0,-0.4399999976158142,0.2300000041723251,0.0010908305412158,0.0,0.0,0.0,-0.0,4.020122289657593,-0.0054077633324936,-1.5640187093796925,0.5128023472395744
3.992778778076172,0.0,0.0,-0.4399999976158142,0.2300000041723251,0.0010908305412158,0.0,0.0,0.0,-0.0,4.030191659927368,-0.0054142386683742,-1.5640247787185704,0.5127995243033834
3.992778778076172,0.0,0.0,-0.4399999976158142,0.2300000041723251,0.0010908305412158,0.0,0.0,0.0,-0.0,4.040197372436523,-0.0054205907978535,-1.5640327530152869,0.5127040786129627
3.992778778076172,0.0,0.0,-0.4399999976158142,0.2300000041723251,0.0010908305412158,0.0,0.0,0.0,-0.0,4.050041437149048,-0.005410023312938,-1.5640215039658203,0.5127787386453164
3.992778778076172,0.0,0.0,-0.4399999976158142,0.2300000041723251,0.0010908305412158,0.0,0.0,0.0,-0.0,4.060243368148804,-0.0054178733375368,-1.564034828551358,0.512850235893302
3.992778778076172,0.0,0.0,-0.4399999976158142,0.2300000041723251,0.0010908305412158,0.0,0.0,0.0,-0.0,4.0700225830078125,-0.0054162013170636,-1.564023118630207,0.5127888039399089
3.992778778076172,0.0,0.0,-0.4399999976158142,0.2300000041723251,0.0010908305412158,0.0,0.0,0.0,-0.0,4.079734802246094,-0.0054229978248062,-1.564019083507402,0.5128871144274098
3.992778778076172,0.0,0.0,-0.4399999976158142,0.2300000041723251,0.0010908305412158,0.0,0.0,0.0,-0.0,4.089624404907227,-0.0054306239706727,-1.5640364452164397,0.5127872796095413
4.092475891113281,0.0,0.0,-0.3600000143051147,0.270000010728836,0.0010908305412158,0.0,0.0,0.0,-0.0,4.09930419921875,-0.0054262821680534,-1.564034560637044,0.512826796806415
4.092475891113281,0.0,0.0,-0.3600000143051147,0.270000010728836,0.0010908305412158,0.0,0.0,0.0,-0.0,4.109931230545044,-0.0054305243409956,-1.564035995194751,0.5127621256125088
4.092475891113281,0.0,0.0,-0.3600000143051147,0.270000010728836,0.0010908305412158,0.0,0.0,0.0,-0.0,4.11993670463562,-0.0054188540811559,-1.564028493660149,0.5127047925225787
4.092475891113281,0.0,0.0,-0.3600000143051147,0.270000010728836,0.0010908305412158,0.0,0.0,0.0,-0.0,4.12989354133606,-0.005416611347977,-1.5640320355689803,0.5126974186945356
4.092475891113281,0.0,0.0,-0.3600000143051147,0.270000010728836,0.0010908305412158,0.0,0.0,0.0,-0.0,4.13998818397522,-0.0054254772908871,-1.5640349895334271,0.5129429380721661
4.092475891113281,0.0,0.0,-0.3600000143051147,0.270000010728836,0.0010908305412158,0.0,0.0,0.0,-0.0,4.150231838226318,-0.0054307423724427,-1.5640306865966047,0.512823310475514
4.092475891113281,0.0,0.0,-0.3600000143051147,0.270000010728836,0.0010908305412158,0.0,0.0,0.0,-0.0,4.160227060317993,-0.0054328438560927,-1.5640255564948429,0.5128054245820984
4.092475891113281,0.0,0.0,-0.3600000143051147,0.270000010728836,0.0010908305412158,0.0,0.0,0.0,-0.0,4.170246362686157,-0.0054211506243352,-1.5640312206657214,0.5130365220512368
4.092475891113281,0.0,0.0,-0.3600000143051147,0.270000010728836,0.0010908305412158,0.0,0.0,0.0,-0.0,4.180628299713135,-0.0054098631973895,-1.5640368756550578,0.5126455028757125
4.092475891113281,0.0,0.0,-0.3600000143051147,0.270000010728836,0.0010908305412158,0.0,0.0,0.0,-0.0,4.1900856494903564,-0.0054152721488915,-1.564041578516683,0.5126795557126674
4.19293212890625,0.0,0.0,-0.4199999868869781,0.2399999946355819,0.0032724919728934,0.0,0.0,0.0,-0.0,4.200247526168823,-0.0054167339102422,-1.5640502260823042,0.5126487821482844
4.19293212890625,0.0,0.0,-0.4199999868869781,0.2399999946355819,0.0032724919728934,0.0,0.0,0.0,-0.0,4.210496425628662,-0.0054141466207947,-1.5640468376583874,0.5127832704345545
4.19293212890625,0.0,0.0,-0.4199999868869781,0.2399999946355819,0.0032724919728934,0.0,0.0,0.0,-0.0,4.220435619354248,-0.0054285251832879,-1.564026267169859,0.5127106534513346
4.19293212890625,0.0,0.0,-0.4199999868869781,0.2399999946355819,0.0032724919728934,0.0,0.0,0.0,-0.0,4.230380058288574,-0.0054089981075612,-1.5640270717298086,0.5129188387613285
4.19293212890625,0.0,0.0,-0.4199999868869781,0.2399999946355819,0.0032724919728934,0.0,0.0,0.0,-0.0,4.240286350250244,-0.0054262528457471,-1.564026056533717,0.5128578475640772
4.19293212890625,0.0,0.0,-0.4199999868869781,0.2399999946355819,0.0032724919728934,0.0,0.0,0.0,-0.0,4.250314474105835,-0.0054192182054548,-1.5640359128601384,0.512783712062591
4.19293212890625,0.0,0.0,-0.4199999868869781,0.2399999946355819,0.0032724919728934,0.0,0.0,0.0,-0.0,4.260899543762207,-0.0054058093021418,-1.5640404874733431,0.5127706713031034
4.19293212890625,0.0,0.0,-0.4199999868869781,0.2399999946355819,0.0032724919728934,0.0,0.0,0.0,-0.0,4.270426511764526,-0.0053945417408672,-1.564044264061546,0.5127792230396209
4.19293212890625,0.0,0.0,-0.4199999868869781,0.2399999946355819,0.0032724919728934,0.0,0.0,0.0,-0.0,4.280106544494629,-0.0054100207254179,-1.5640361947262849,0.512776224400346
4.292469024658203,0.0,0.0,-0.4300000071525574,0.25,-0.0010908305412158,0.0,0.0,0.0,-0.0,4.289987325668335,-0.0054096535479943,-1.5640358187119183,0.5127724974223099
4.292469024658203,0.0,0.0,-0.4300000071525574,0.25,-0.0010908305412158,0.0,0.0,0.0,-0.0,4.299489498138428,-0.0054116899146485,-1.5640391911047056,0.5128339947747294
4.292469024658203,0.0,0.0,-0.4300000071525574,0.25,-0.0010908305412158,0.0,0.0,0.0,-0.0,4.3093860149383545,-0.0054185344915067,-1.5640355353030098,0.5129278195770457
4.292469024658203,0.0,0.0,-0.4300000071525574,0.25,-0.0010908305412158,0.0,0.0,0.0,-0.0,4.319948434829712,-0.0054199379093253,-1.5640325602742793,0.5129504832249596
4.292469024658203,0.0,0.0,-0.4300000071525574,0.25,-0.0010908305412158,0.0,0.0,0.0,-0.0,4.329805374145508,-0.0053945222221945,-1.5640366253590328,0.5128036714817584
4.292469024658203,0.0,0.0,-0.4300000071525574,0.25,-0.0010908305412158,0.0,0.0,0.0,-0.0,4.339918375015259,-0.0054004839149629,-1.564049955386508,0.5128436976833568
4.292469024658203,0.0,0.0,-0.4300000071525574,0.25,-0.0010908305412158,0.0,0.0,0.0,-0.0,4.350038528442383,-0.0054150729022008,-1.5640529557128404,0.5125740668581693
4.292469024658203,0.0,0.0,-0.4300000071525574,0.25,-0.0010908305412158,0.0,0.0,0.0,-0.0,4.35991096496582,-0.0054099263794681,-1.564039343900712,0.5127725212220654
4.292469024658203,0.0,0.0,-0.4300000071525574,0.25,-0.0010908305412158,0.0,0.0,0.0,-0.0,4.3701012134552,-0.0054185282380029,-1.5640458718182804,0.5128137982478577
4.292469024658203,0.0,0.0,-0.4300000071525574,0.25,-0.0010908305412158,0.0,0.0,0.0,-0.0,4.379809141159058,-0.0054219024088056,-1.5640382515464628,0.5128433991622111
4.292469024658203,0.0,0.0,-0.4300000071525574,0.25,-0.0010908305412158,0.0,0.0,0.0,-0.0,4.389812231063843,-0.0054234592317663,-1.5640255420022515,0.5128027949571001
4.392787933349609,0.0,0.0,-0.4300000071525574,0.2199999988079071,0.0032724919728934,0.0,0.0,0.0,-0.0,4.400126695632935,-0.0054030499928929,-1.5640325556666586,0.5130484751209852
4.392787933349609,0.0,0.0,-0.4300000071525574,0.2199999988079071,0.0032724919728934,0.0,0.0,0.0,-0.0,4.4100635051727295,-0.0054084024457146,-1.5640418745981008,0.5128282107534784
4.392787933349609,0.0,0.0,-0.4300000071525574,0.2199999988079071,0.0032724919728934,0.0,0.0,0.0,-0.0,4.419874668121338,-0.0054069564401969,-1.564051970832438,0.5126416039774443
4.392787933349609,0.0,0.0,-0.4300000071525574,0.2199999988079071,0.0032724919728934,0.0,0.0,0.0,-0.0,4.429974317550659,-0.0054208072398278,-1.564050703322981,0.512687896066367
4.392787933349609,0.0,0.0,-0.4300000071525574,0.2199999988079071,0.0032724919728934,0.0,0.0,0.0,-0.0,4.439927339553833,-0.0054141250762025,-1.5640459699266998,0.5127491594370491
4.392787933349609,0.0,0.0,-0.4300000071525574,0.2199999988079071,0.0032724919728934,0.0,0.0,0.0,-0.0,4.449930191040039,-0.0054170095944721,-1.5640280325467402,0.5128020140073181
4.392787933349609,0.0,0.0,-0.4300000071525574,0.2199999988079071,0.0032724919728934,0.0,0.0,0.0,-0.0,4.460190534591675,-0.005425265147886,-1.5640312002040957,0.5128282240295186
4.392787933349609,0.0,0.0,-0.4300000071525574,0.2199999988079071,0.0032724919728934,0.0,0.0,0.0,-0.0,4.470017671585083,-0.0054236534455625,-1.5640251086746677,0.5128737708230454
4.392787933349609,0.0,0.0,-0.4300000071525574,0.2199999988079071,0.0032724919728934,0.0,0.0,0.0,-0.0,4.479879379272461,-0.005417014843184,-1.5640291009701814,0.5127406477068948
4.491447448730469,0.0,0.0,-0.3700000047683716,0.270000010728836,0.0,0.0,0.0,0.0,-0.0,4.489930152893066,-0.0054104388010162,-1.5640345092579315,0.512718086813089
4.491447448730469,0.0,0.0,-0.3700000047683716,0.270000010728836,0.0,0.0,0.0,0.0,-0.0,4.4997642040252686,-0.0054277174615693,-1.5640408876303002,0.5128306140142297
4.491447448730469,0.0,0.0,-0.3700000047683716,0.270000010728836,0.0,0.0,0.0,0.0,-0.0,4.509867429733276,-0.0054167142703754,-1.5640412236179306,0.5127273324629118
4.491447448730469,0.0,0.0,-0.3700000047683716,0.270000010728836,0.0,0.0,0.0,0.0,-0.0,4.520042657852173,-0.0054097194841577,-1.5640268866572848,0.5128258519342989
4.491447448730469,0.0,0.0,-0.3700000047683716,0.270000010728836,0.0,0.0,0.0,0.0,-0.0,4.5298521518707275,-0.0054328001149457,-1.5640314551341907,0.5127485705666938
4.491447448730469,0.0,0.0,-0.3700000047683716,0.270000010728836,0.0,0.0,0.0,0.0,-0.0,4.53950047492981,-0.00543588540546,-1.564029230325031,0.5128513700878828
4.491447448730469,0.0,0.0,-0.3700000047683716,0.270000010728836,0.0,0.0,0.0,0.0,-0.0,4.550365924835205,-0.0054260967741452,-1.564033448052781,0.5127822226350751
4.491447448730469,0.0,0.0,-0.3700000047683716,0.270000010728836,0.0,0.0,0.0,0.0,-0.0,4.560153484344482,-0.0054135697573873,-1.5640401903720789,0.5127899930171023
4.491447448730469,0.0,0.0,-0.3700000047683716,0.270000010728836,0.0,0.0,0.0,0.0,-0.0,4.569963455200195,-0.0053992698923983,-1.5640347209729426,0.512776936469802
4.491447448730469,0.0,0.0,-0.3700000047683716,0.270000010728836,0.0,0.0,0.0,0.0,-0.0,4.579530477523804,-0.0054137164314469,-1.5640311740132673,0.5127011438471808
4.491447448730469,0.0,0.0,-0.3700000047683716,0.270000010728836,0.0,0.0,0.0,0.0,-0.0,4.5895538330078125,-0.0054210069063365,-1.5640381656883005,0.5128244295967899
4.59271240234375,0.0,0.0,-0.3799999952316284,0.2399999946355819,0.0,0.0,0.0,0.0,-0.0,4.5995094776153564,-0.0054579512506152,-1.564024607752757,0.5128020417922063
4.59271240234375,0.0,0.0,-0.3799999952316284,0.2399999946355819,0.0,0.0,0.0,0.0,-0.0,4.609874248504639,-0.0054589584942322,-1.5640188989166794,0.5127535846878087
4.59271240234375,0.0,0.0,-0.3799999952316284,0.2399999946355819,0.0,0.0,0.0,0.0,-0.0,4.619337797164917,-0.0054408701514292,-1.5640263301181283,0.512847546365602
4.59271240234375,0.0,0.0,-0.3799999952316284,0.2399999946355819,0.0,0.0,0.0,0.0,-0.0,4.629406929016113,-0.0054270796996095,-1.5640288735406895,0.512835274005901
4.59271240234375,0.0,0.0,-0.3799999952316284,0.2399999946355819,0.0,0.0,0.0,0.0,-0.0,4.639397144317627,-0.0054039987411018,-1.5640375284492545,0.5127546294817726
4.59271240234375,0.0,0.0,-0.3799999952316284,0.2399999946355819,0.0,0.0,0.0,0.0,-0.0,4.649442911148071,-0.0054075800841896,-1.564042460477832,0.512869479854514
4.59271240234375,0.0,0.0,-0.3799999952316284,0.2399999946355819,0.0,0.0,0.0,0.0,-0.0,4.660003900527954,-0.0054225792606752,-1.564028315649162,0.5125890295286147
4.59271240234375,0.0,0.0,-0.3799999952316284,0.2399999946355819,0.0,0.0,0.0,0.0,-0.0,4.669683218002319,-0.0054384764826648,-1.564027737425244,0.5127792008653759
4.59271240234375,0.0,0.0,-0.3799999952316284,0.2399999946355819,0.0,0.0,0.0,0.0,-0.0,4.679483652114868,-0.0054508864492478,-1.5640174683052412,0.5126307001599545
4.690082550048828,0.0,0.0,-0.4199999868869781,0.25,0.0010908305412158,0.0,0.0,0.0,-0.0,4.6894519329071045,-0.0054365684357269,-1.5640273131066302,0.5129535645431108
4.690082550048828,0.0,0.0,-0.4199999868869781,0.25,0.0010908305412158,0.0,0.0,0.0,-0.0,4.699549198150635,-0.005420395021493,-1.564028130298963,0.5128562856599502
4.690082550048828,0.0,0.0,-0.4199999868869781,0.25,0.0010908305412158,0.0,0.0,0.0,-0.0,4.709958791732788,-0.0054069183321934,-1.5640314188812137,0.5126514386544765
4.690082550048828,0.0,0.0,-0.4199999868869781,0.25,0.0010908305412158,0.0,0.0,0.0,-0.0,4.720021486282349,-0.0054066966312577,-1.5640282263754797,0.5127648772824963
4.690082550048828,0.0,0.0,-0.4199999868869781,0.25,0.0010908305412158,0.0,0.0,0.0,-0.0,4.730100393295288,-0.0054287523524515,-1.564041863383083,0.5129009806343723
4.690082550048828,0.0,0.0,-0.4199999868869781,0.25,0.0010908305412158,0.0,0.0,0.0,-0.0,4.740005254745483,-0.00542800813452,-1.564036185005926,0.5126973047278116
4.690082550048828,0.0,0.0,-0.4199999868869781,0.25,0.0010908305412158,0.0,0.0,0.0,-0.0,4.7499308586120605,-0.0054264539420404,-1.5640220618699716,0.5128088736275374
4.690082550048828,0.0,0.0,-0.4199999868869781,0.25,0.0010908305412158,0.0,0.0,0.0,-0.0,4.7602314949035645,-0.0054182577786961,-1.5640162495429752,0.5128656658694298
4.690082550048828,0.0,0.0,-0.4199999868869781,0.25,0.0010908305412158,0.0,0.0,0.0,-0.0,4.770118713378906,-0.0054246807658791,-1.5640282526880491,0.5128087389263022
4.690082550048828,0.0,0.0,-0.4199999868869781,0.25,0.0010908305412158,0.0,0.0,0.0,-0.0,4.7806196212768555,-0.0054192965561614,-1.564025436452672,0.5127901047822943
4.790599822998047,0.0,0.0,-0.3700000047683716,0.2899999916553497,0.0010908305412158,0.0,0.0,0.0,-0.0,4.7901694774627686,-0.0054226940437767,-1.564037605693493,0.5127503618429461
4.790599822998047,0.0,0.0,-0.3700000047683716,0.2899999916553497,0.0010908305412158,0.0,0.0,0.0,-0.0,4.800834655761719,-0.005417928676121,-1.564029801752242,0.5127317984894558
4.790599822998047,0.0,0.0,-0.3700000047683716,0.2899999916553497,0.0010908305412158,0.0,0.0,0.0,-0.0,4.810301780700684,-0.0054209743799895,-1.564042475710381,0.5127510933450163
4.790599822998047,0.0,0.0,-0.3700000047683716,0.2899999916553497,0.0010908305412158,0.0,0.0,0.0,-0.0,4.820483446121216,-0.0054168691096315,-1.5640393242437567,0.5127697669862008
4.790599822998047,0.0,0.0,-0.3700000047683716,0.2899999916553497,0.0010908305412158,0.0,0.0,0.0,-0.0,4.83015251159668,-0.0054237966386575,-1.564025261485375,0.5128146305125197
4.790599822998047,0.0,0.0,-0.3700000047683716,0.2899999916553497,0.0010908305412158,0.0,0.0,0.0,-0.0,4.840102672576904,-0.0054210943753984,-1.5640342206744378,0.5127095046909631
4.790599822998047,0.0,0.0,-0.3700000047683716,0.2899999916553497,0.0010908305412158,0.0,0.0,0.0,-0.0,4.850235939025879,-0.0054274216983,-1.5640446948959048,0.5129065361699363
4.790599822998047,0.0,0.0,-0.3700000047683716,0.2899999916553497,0.0010908305412158,0.0,0.0,0.0,-0.0,4.860784530639648,-0.005419152109277,-1.5640448676380123,0.5128252589978018
4.790599822998047,0.0,0.0,-0.3700000047683716,0.2899999916553497,0.0010908305412158,0.0,0.0,0.0,-0.0,4.870431184768677,-0.0054147808236466,-1.564034550879032,0.5128592123800224
4.790599822998047,0.0,0.0,-0.3700000047683716,0.2899999916553497,0.0010908305412158,0.0,0.0,0.0,-0.0,4.880398273468018,-0.0054195417476263,-1.564032948547878,0.5128905687122569
4.889598846435547,0.0,0.0,-0.3700000047683716,0.2800000011920929,0.0010908305412158,0.0,0.0,0.0,-0.0,4.890205144882202,-0.0054260799018043,-1.5640514976194675,0.5127675164342965
4.889598846435547,0.0,0.0,-0.3700000047683716,0.2800000011920929,0.0010908305412158,0.0,0.0,0.0,-0.0,4.900273084640503,-0.0054032565016882,-1.5640499920556674,0.5127712900831602
4.889598846435547,0.0,0.0,-0.3700000047683716,0.2800000011920929,0.0010908305412158,0.0,0.0,0.0,-0.0,4.910252571105957,-0.0054084452878559,-1.5640573060062255,0.5128005793145743
4.889598846435547,0.0,0.0,-0.3700000047683716,0.2800000011920929,0.0010908305412158,0.0,0.0,0.0,-0.0,4.920138120651245,-0.0054192999215616,-1.5640424387833645,0.5126507170285161
4.889598846435547,0.0,0.0,-0.3700000047683716,0.2800000011920929,0.0010908305412158,0.0,0.0,0.0,-0.0,4.930436849594116,-0.0054157139591558,-1.5640366560311645,0.512791822717194
4.889598846435547,0.0,0.0,-0.3700000047683716,0.2800000011920929,0.0010908305412158,0.0,0.0,0.0,-0.0,4.940171718597412,-0.0054186436287019,-1.5640411518198252,0.5129798233162686
4.889598846435547,0.0,0.0,-0.3700000047683716,0.2800000011920929,0.0010908305412158,0.0,0.0,0.0,-0.0,4.9506683349609375,-0.0054170857926353,-1.5640263420541014,0.5129538031726274
4.889598846435547,0.0,0.0,-0.3700000047683716,0.2800000011920929,0.0010908305412158,0.0,0.0,0.0,-0.0,4.960369110107422,-0.0054142530045671,-1.5640394021526371,0.5128040675388033
4.889598846435547,0.0,0.0,-0.3700000047683716,0.2800000011920929,0.0010908305412158,0.0,0.0,0.0,-0.0,4.970662355422974,-0.005421432317538,-1.5640471123796331,0.5128995709435038
4.889598846435547,0.0,0.0,-0.3700000047683716,0.2800000011920929,0.0010908305412158,0.0,0.0,0.0,-0.0,4.980347394943237,-0.0054094207949458,-1.5640460406449412,0.5128455792820816
4.989871978759766,0.0,0.0,-0.3700000047683716,0.2599999904632568,-0.0010908305412158,0.0,0.0,0.0,-0.0,4.990211725234985,-0.0054211042617349,-1.56404768545271,0.5129687516269708
4.989871978759766,0.0,0.0,-0.3700000047683716,0.2599999904632568,-0.0010908305412158,0.0,0.0,0.0,-0.0,5.000478029251099,-0.0054027123564229,-1.564034172263558,0.5126865576619527
4.989871978759766,0.0,0.0,-0.3700000047683716,0.2599999904632568,-0.0010908305412158,0.0,0.0,0.0,-0.0,5.010387182235718,-0.0054110416691529,-1.5640490508995388,0.5128948700300692
4.989871978759766,0.0,0.0,-0.3700000047683716,0.2599999904632568,-0.0010908305412158,0.0,0.0,0.0,-0.0,5.020361423492432,-0.0054142991866553,-1.5640446407143624,0.5126707902409628
4.989871978759766,0.0,0.0,-0.3700000047683716,0.2599999904632568,-0.0010908305412158,0.0,0.0,0.0,-0.0,5.030231714248657,-0.0054117015510457,-1.564040484283205,0.5127527297974832
4.989871978759766,0.0,0.0,-0.3700000047683716,0.2599999904632568,-0.0010908305412158,0.0,0.0,0.0,-0.0,5.040411710739136,-0.0054138411617419,-1.564043270399285,0.5128753978377452
4.989871978759766,0.0,0.0,-0.3700000047683716,0.2599999904632568,-0.0010908305412158,0.0,0.0,0.0,-0.0,5.0501344203948975,-0.0054044231766368,-1.5640426571986117,0.5128141810209725
4.989871978759766,0.0,0.0,-0.3700000047683716,0.2599999904632568,-0.0010908305412158,0.0,0.0,0.0,-0.0,5.060072422027588,-0.0054084420340485,-1.5640471116023438,0.5126229743424655
4.989871978759766,0.0,0.0,-0.3700000047683716,0.2599999904632568,-0.0010908305412158,0.0,0.0,0.0,-0.0,5.070549249649048,-0.0054181107099375,-1.5640533714604632,0.5126727909399147
4.989871978759766,0.0,0.0,-0.3700000047683716,0.2599999904632568,-0.0010908305412158,0.0,0.0,0.0,-0.0,5.0802037715911865,-0.0054221191328857,-1.5640400476151042,0.5128178856329961
5.090908050537109,0.0,0.0,-0.449999988079071,0.2199999988079071,0.0010908305412158,0.0,0.0,0.0,-0.0,5.09041166305542,-0.0054281693966286,-1.5640390039310166,0.5126463258272475
5.090908050537109,0.0,0.0,-0.449999988079071,0.2199999988079071,0.0010908305412158,0.0,0.0,0.0,-0.0,5.100588798522949,-0.0054115754386638,-1.5640401394959649,0.5127798698191913
5.090908050537109,0.0,0.0,-0.449999988079071,0.2199999988079071,0.0010908305412158,0.0,0.0,0.0,-0.0,5.110279083251953,-0.0054084209614044,-1.5640340374853077,0.5127294450592124
5.090908050537109,0.0,0.0,-0.449999988079071,0.2199999988079071,0.0010908305412158,0.0,0.0,0.0,-0.0,5.120179653167725,-0.0054099085044013,-1.56404217112441,0.5128738263544251
5.090908050537109,0.0,0.0,-0.449999988079071,0.2199999988079071,0.0010908305412158,0.0,0.0,0.0,-0.0,5.13006854057312,-0.00540412308109,-1.5640371788387224,0.5128053034802489
5.090908050537109,0.0,0.0,-0.449999988079071,0.2199999988079071,0.0010908305412158,0.0,0.0,0.0,-0.0,5.140237092971802,-0.0054096764573175,-1.5640402565119425,0.512740079914053
5.090908050537109,0.0,0.0,-0.449999988079071,0.2199999988079071,0.0010908305412158,0.0,0.0,0.0,-0.0,5.150309324264526,-0.0054365731002747,-1.5640394617593052,0.5127474147488291
5.090908050537109,0.0,0.0,-0.449999988079071,0.2199999988079071,0.0010908305412158,0.0,0.0,0.0,-0.0,5.160247802734375,-0.0054396943399293,-1.564045407048315,0.5127754762561181
5.090908050537109,0.0,0.0,-0.449999988079071,0.2199999988079071,0.0010908305412158,0.0,0.0,0.0,-0.0,5.170285940170288,-0.0054325271587324,-1.564039497619381,0.5128167812322051
5.090908050537109,0.0,0.0,-0.449999988079071,0.2199999988079071,0.0010908305412158,0.0,0.0,0.0,-0.0,5.1800127029418945,-0.0054153650889882,-1.5640333897177927,0.5127599467148473
5.090908050537109,0.0,0.0,-0.449999988079071,0.2199999988079071,0.0010908305412158,0.0,0.0,0.0,-0.0,5.190119981765747,-0.0054061753103995,-1.5640433200440136,0.5128299732373822
5.194938659667969,0.0,0.0,-0.4300000071525574,0.2399999946355819,-0.0010908305412158,0.0,0.0,0.0,-0.0,5.200258731842041,-0.0054151011375363,-1.5640278479683478,0.5129048238028492
5.194938659667969,0.0,0.0,-0.4300000071525574,0.2399999946355819,-0.0010908305412158,0.0,0.0,0.0,-0.0,5.210496425628662,-0.0054205184837294,-1.564037349890356,0.5129231037827098
5.194938659667969,0.0,0.0,-0.4300000071525574,0.2399999946355819,-0.0010908305412158,0.0,0.0,0.0,-0.0,5.220555543899536,-0.0054233166803626,-1.5640357501173836,0.5126935028176697
5.194938659667969,0.0,0.0,-0.4300000071525574,0.2399999946355819,-0.0010908305412158,0.0,0.0,0.0,-0.0,5.230221271514893,-0.0054284872881907,-1.5640364147059231,0.512911199606348
5.194938659667969,0.0,0.0,-0.4300000071525574,0.2399999946355819,-0.0010908305412158,0.0,0.0,0.0,-0.0,5.240277528762817,-0.0054293900349472,-1.564034188237834,0.5127898551341595
5.194938659667969,0.0,0.0,-0.4300000071525574,0.2399999946355819,-0.0010908305412158,0.0,0.0,0.0,-0.0,5.250506401062012,-0.0054209608853348,-1.5640344044253525,0.5128232652328176
5.194938659667969,0.0,0.0,-0.4300000071525574,0.2399999946355819,-0.0010908305412158,0.0,0.0,0.0,-0.0,5.260406494140625,-0.0054197501130334,-1.5640359241924893,0.5128757076341833
5.194938659667969,0.0,0.0,-0.4300000071525574,0.2399999946355819,-0.0010908305412158,0.0,0.0,0.0,-0.0,5.2705724239349365,-0.0054232183514767,-1.5640419742073433,0.5127102109288744
5.194938659667969,0.0,0.0,-0.4300000071525574,0.2399999946355819,-0.0010908305412158,0.0,0.0,0.0,-0.0,5.280330419540405,-0.005416571724283,-1.564039470588556,0.5126778970156997
5.291713714599609,0.0,0.0,-0.3499999940395355,0.2800000011920929,0.0032724919728934,0.0,0.0,0.0,-0.0,5.2904863357543945,-0.0054278543467574,-1.5640316942598562,0.512976377953826
5.291713714599609,0.0,0.0,-0.3499999940395355,0.2800000011920929,0.0032724919728934,0.0,0.0,0.0,-0.0,5.300310134887695,-0.0054354982997792,-1.5640281949485966,0.5125625296762565
5.291713714599609,0.0,0.0,-0.3499999940395355,0.2800000011920929,0.0032724919728934,0.0,0.0,0.0,-0.0,5.310293197631836,-0.0054350544717397,-1.5640228422551292,0.5129141434099915
5.291713714599609,0.0,0.0,-0.3499999940395355,0.2800000011920929,0.0032724919728934,0.0,0.0,0.0,-0.0,5.320343732833862,-0.0054355759077989,-1.56402609232623,0.5127528102039546
5.291713714599609,0.0,0.0,-0.3499999940395355,0.2800000011920929,0.0032724919728934,0.0,0.0,0.0,-0.0,5.330209255218506,-0.0054256766077784,-1.5640356173287138,0.5128269023229508
5.291713714599609,0.0,0.0,-0.3499999940395355,0.2800000011920929,0.0032724919728934,0.0,0.0,0.0,-0.0,5.340129137039185,-0.0054174383651821,-1.5640307045655366,0.512683690880278
5.291713714599609,0.0,0.0,-0.3499999940395355,0.2800000011920929,0.0032724919728934,0.0,0.0,0.0,-0.0,5.350342273712158,-0.0054098175686088,-1.5640342678182229,0.5127929188973938
5.291713714599609,0.0,0.0,-0.3499999940395355,0.2800000011920929,0.0032724919728934,0.0,0.0,0.0,-0.0,5.360372066497803,-0.0054101814091391,-1.5640376182643445,0.5128545450991636
5.291713714599609,0.0,0.0,-0.3499999940395355,0.2800000011920929,0.0032724919728934,0.0,0.0,0.0,-0.0,5.37060022354126,-0.0054130287580267,-1.5640293733589894,0.5129755795761359
5.291713714599609,0.0,0.0,-0.3499999940395355,0.2800000011920929,0.0032724919728934,0.0,0.0,0.0,-0.0,5.3810882568359375,-0.0054244442240868,-1.5640335346022285,0.5128091782852282
5.391994476318359,0.0,0.0,-0.449999988079071,0.2199999988079071,0.0010908305412158,0.0,0.0,0.0,-0.0,5.390244007110596,-0.0054352612925589,-1.5640356599915195,0.5127627771983255
5.391994476318359,0.0,0.0,-0.449999988079071,0.2199999988079071,0.0010908305412158,0.0,0.0,0.0,-0.0,5.4005701541900635,-0.0054221433076832,-1.56402837579192,0.5127549824393871
5.391994476318359,0.0,0.0,-0.449999988079071,0.2199999988079071,0.0010908305412158,0.0,0.0,0.0,-0.0,5.410489082336426,-0.0054132452122545,-1.564033766443243,0.5126839863824144
5.391994476318359,0.0,0.0,-0.449999988079071,0.2199999988079071,0.0010908305412158,0.0,0.0,0.0,-0.0,5.420365333557129,-0.0054063679881422,-1.5640340720611146,0.5129155323570619
5.391994476318359,0.0,0.0,-0.449999988079071,0.2199999988079071,0.0010908305412158,0.0,0.0,0.0,-0.0,5.4304351806640625,-0.0054062544170494,-1.5640404591313333,0.5128606753721875
5.391994476318359,0.0,0.0,-0.449999988079071,0.2199999988079071,0.0010908305412158,0.0,0.0,0.0,-0.0,5.440161943435669,-0.0054030890607962,-1.5640469510750847,0.5127738960376205
5.391994476318359,0.0,0.0,-0.449999988079071,0.2199999988079071,0.0010908305412158,0.0,0.0,0.0,-0.0,5.450323581695557,-0.0054148328946432,-1.564034475335077,0.5127785281713715
5.391994476318359,0.0,0.0,-0.449999988079071,0.2199999988079071,0.0010908305412158,0.0,0.0,0.0,-0.0,5.460324287414551,-0.0054213551788706,-1.5640303795240849,0.5127842250416218
5.391994476318359,0.0,0.0,-0.449999988079071,0.2199999988079071,0.0010908305412158,0.0,0.0,0.0,-0.0,5.470546245574951,-0.0054287425477003,-1.5640341177686086,0.5128395674323415
5.391994476318359,0.0,0.0,-0.449999988079071,0.2199999988079071,0.0010908305412158,0.0,0.0,0.0,-0.0,5.48040771484375,-0.0054260851353136,-1.564027660515684,0.5126751713334158
5.491958618164055,0.0,0.0,-0.3899999856948852,0.270000010728836,-0.0021816610824316,0.0,0.0,0.0,-0.0,5.490704536437988,-0.0054147390238782,-1.5640311589487328,0.512868707145826
5.491958618164055,0.0,0.0,-0.3899999856948852,0.270000010728836,-0.0021816610824316,0.0,0.0,0.0,-0.0,5.500517129898071,-0.005416470080005,-1.5640386491832166,0.5128073559748225
5.491958618164055,0.0,0.0,-0.3899999856948852,0.270000010728836,-0.0021816610824316,0.0,0.0,0.0,-0.0,5.510299444198608,-0.0054153781040754,-1.5640353006908547,0.5129157334810823
5.491958618164055,0.0,0.0,-0.3899999856948852,0.270000010728836,-0.0021816610824316,0.0,0.0,0.0,-0.0,5.520693778991699,-0.0054163621202682,-1.5640357536414746,0.5128523880018891
5.491958618164055,0.0,0.0,-0.3899999856948852,0.270000010728836,-0.0021816610824316,0.0,0.0,0.0,-0.0,5.530237913131714,-0.005429028088832,-1.5640524300733205,0.5126765119944028
5.491958618164055,0.0,0.0,-0.3899999856948852,0.270000010728836,-0.0021816610824316,0.0,0.0,0.0,-0.0,5.540233135223389,-0.0054191124616256,-1.5640463529097524,0.5129466275148813
5.491958618164055,0.0,0.0,-0.3899999856948852,0.270000010728836,-0.0021816610824316,0.0,0.0,0.0,-0.0,5.550819635391235,-0.0054263090084856,-1.5640339641743286,0.5127068282891618
5.491958618164055,0.0,0.0,-0.3899999856948852,0.270000010728836,-0.0021816610824316,0.0,0.0,0.0,-0.0,5.560068130493164,-0.0054137298341267,-1.5640349886108194,0.5127123271042286
5.491958618164055,0.0,0.0,-0.3899999856948852,0.270000010728836,-0.0021816610824316,0.0,0.0,0.0,-0.0,5.570500612258911,-0.005418258567293,-1.5640360733686025,0.5127683831828582
5.491958618164055,0.0,0.0,-0.3899999856948852,0.270000010728836,-0.0021816610824316,0.0,0.0,0.0,-0.0,5.5802295207977295,-0.0054138467347163,-1.5640438865135615,0.5127330794301481
5.491958618164055,0.0,0.0,-0.3899999856948852,0.270000010728836,-0.0021816610824316,0.0,0.0,0.0,-0.0,5.590243816375732,-0.005419955502542,-1.5640442006667856,0.5127269842362828
5.593059539794922,0.0,0.0,-0.3799999952316284,0.2599999904632568,0.0010908305412158,0.0,0.0,0.0,-0.0,5.6005637645721436,-0.0054194243948122,-1.564039258598798,0.5128002337654256
5.593059539794922,0.0,0.0,-0.3799999952316284,0.2599999904632568,0.0010908305412158,0.0,0.0,0.0,-0.0,5.609909772872925,-0.0054316943195985,-1.5640329972023324,0.5127729461919818
5.593059539794922,0.0,0.0,-0.3799999952316284,0.2599999904632568,0.0010908305412158,0.0,0.0,0.0,-0.0,5.620349407196045,-0.0054332616551061,-1.5640406402435811,0.5128073162508955
5.593059539794922,0.0,0.0,-0.3799999952316284,0.2599999904632568,0.0010908305412158,0.0,0.0,0.0,-0.0,5.630202531814575,-0.0054269896433841,-1.5640360559939095,0.5128176929051999
5.593059539794922,0.0,0.0,-0.3799999952316284,0.2599999904632568,0.0010908305412158,0.0,0.0,0.0,-0.0,5.640106916427612,-0.0054238335178303,-1.564039774971954,0.5127162358336608
5.593059539794922,0.0,0.0,-0.3799999952316284,0.2599999904632568,0.0010908305412158,0.0,0.0,0.0,-0.0,5.650294542312622,-0.0054147383872208,-1.5640410190139145,0.5128582656810511
5.593059539794922,0.0,0.0,-0.3799999952316284,0.2599999904632568,0.0010908305412158,0.0,0.0,0.0,-0.0,5.660127639770508,-0.0054251890922504,-1.5640456527073572,0.5127133091277415
5.593059539794922,0.0,0.0,-0.3799999952316284,0.2599999904632568,0.0010908305412158,0.0,0.0,0.0,-0.0,5.670444488525391,-0.0054195672702947,-1.564042030526848,0.5128085906113684
5.593059539794922,0.0,0.0,-0.3799999952316284,0.2599999904632568,0.0010908305412158,0.0,0.0,0.0,-0.0,5.6803412437438965,-0.0054166365404437,-1.5640400445463871,0.5127271274815941
5.691951751708984,0.0,0.0,-0.4399999976158142,0.25,0.0010908305412158,0.0,0.0,0.0,-0.0,5.690582513809204,-0.0054263703673594,-1.5640457691371294,0.5128079411721186
5.691951751708984,0.0,0.0,-0.4399999976158142,0.25,0.0010908305412158,0.0,0.0,0.0,-0.0,5.70038104057312,-0.0054231574587939,-1.564035038398484,0.512745809069809
5.691951751708984,0.0,0.0,-0.4399999976158142,0.25,0.0010908305412158,0.0,0.0,0.0,-0.0,5.709826469421387,-0.0054291332539429,-1.5640433353021914,0.5128169432649446
5.691951751708984,0.0,0.0,-0.4399999976158142,0.25,0.0010908305412158,0.0,0.0,0.0,-0.0,5.719439744949341,-0.0054130156398475,-1.5640342365769482,0.5127569712808395
5.691951751708984,0.0,0.0,-0.4399999976158142,0.25,0.0010908305412158,0.0,0.0,0.0,-0.0,5.729876518249512,-0.0054039214022748,-1.5640433724053684,0.5127660681970025
5.691951751708984,0.0,0.0,-0.4399999976158142,0.25,0.0010908305412158,0.0,0.0,0.0,-0.0,5.740041017532349,-0.0054110492730198,-1.5640315938996228,0.5127553540116033
5.691951751708984,0.0,0.0,-0.4399999976158142,0.25,0.0010908305412158,0.0,0.0,0.0,-0.0,5.750462293624878,-0.0054088025870551,-1.5640457863240065,0.5129131846910168
5.691951751708984,0.0,0.0,-0.4399999976158142,0.25,0.0010908305412158,0.0,0.0,0.0,-0.0,5.7600908279418945,-0.0054268907313129,-1.5640391420421926,0.5128267544492543
5.691951751708984,0.0,0.0,-0.4399999976158142,0.25,0.0010908305412158,0.0,0.0,0.0,-0.0,5.770438194274902,-0.0054270802403628,-1.5640315832443084,0.512796094691709
5.691951751708984,0.0,0.0,-0.4399999976158142,0.25,0.0010908305412158,0.0,0.0,0.0,-0.0,5.780611753463745,-0.005429310854773,-1.5640183550859394,0.5128225426615808
5.79193115234375,0.0,0.0,-0.4399999976158142,0.25,0.0021816610824316,0.0,0.0,0.0,-0.0,5.790179252624512,-0.0054375548445316,-1.5640338592097176,0.5128619065139127
5.79193115234375,0.0,0.0,-0.4399999976158142,0.25,0.0021816610824316,0.0,0.0,0.0,-0.0,5.800678253173828,-0.0054198569929774,-1.5640273727862133,0.5127977190635128
5.79193115234375,0.0,0.0,-0.4399999976158142,0.25,0.0021816610824316,0.0,0.0,0.0,-0.0,5.810179233551025,-0.0054283575435645,-1.5640236136454586,0.5127855279597008
5.79193115234375,0.0,0.0,-0.4399999976158142,0.25,0.0021816610824316,0.0,0.0,0.0,-0.0,5.820045709609985,-0.0054167204699201,-1.5640301593886958,0.5128361660205645
5.79193115234375,0.0,0.0,-0.4399999976158142,0.25,0.0021816610824316,0.0,0.0,0.0,-0.0,5.830179452896118,-0.0054164144928273,-1.5640225062709496,0.5126893855030312
5.79193115234375,0.0,0.0,-0.4399999976158142,0.25,0.0021816610824316,0.0,0.0,0.0,-0.0,5.840499401092529,-0.0054204985495426,-1.5640249383455465,0.512816736504807
5.79193115234375,0.0,0.0,-0.4399999976158142,0.25,0.0021816610824316,0.0,0.0,0.0,-0.0,5.850404739379883,-0.0054243498493996,-1.564033791495475,0.512826561275895
5.79193115234375,0.0,0.0,-0.4399999976158142,0.25,0.0021816610824316,0.0,0.0,0.0,-0.0,5.860682010650635,-0.0054173697780088,-1.5640324402831978,0.5128487052179268
5.79193115234375,0.0,0.0,-0.4399999976158142,0.25,0.0021816610824316,0.0,0.0,0.0,-0.0,5.870616912841797,-0.0054154436326123,-1.5640212913810758,0.5126777547421331
5.79193115234375,0.0,0.0,-0.4399999976158142,0.25,0.0021816610824316,0.0,0.0,0.0,-0.0,5.880424737930298,-0.005416730921027,-1.564034965725865,0.5126890170777837
5.892101287841797,0.0,0.0,-0.4000000059604645,0.2599999904632568,-0.0010908305412158,0.0,0.0,0.0,-0.0,5.890549182891846,-0.0054347621410612,-1.5640325937843855,0.5129203481523076
5.892101287841797,0.0,0.0,-0.4000000059604645,0.2599999904632568,-0.0010908305412158,0.0,0.0,0.0,-0.0,5.900344610214233,-0.0054272342817871,-1.564041787626039,0.5128266685366902
5.892101287841797,0.0,0.0,-0.4000000059604645,0.2599999904632568,-0.0010908305412158,0.0,0.0,0.0,-0.0,5.910066843032837,-0.0054285967333776,-1.5640239149676531,0.5127752020101254
5.892101287841797,0.0,0.0,-0.4000000059604645,0.2599999904632568,-0.0010908305412158,0.0,0.0,0.0,-0.0,5.920690536499023,-0.0054159771127268,-1.5640276797715276,0.5129991888250236
5.892101287841797,0.0,0.0,-0.4000000059604645,0.2599999904632568,-0.0010908305412158,0.0,0.0,0.0,-0.0,5.930417060852051,-0.00542204311324,-1.5640313755528434,0.5128091793844595
5.892101287841797,0.0,0.0,-0.4000000059604645,0.2599999904632568,-0.0010908305412158,0.0,0.0,0.0,-0.0,5.940219879150391,-0.0054190660636611,-1.5640366143306803,0.5128622508477589
5.892101287841797,0.0,0.0,-0.4000000059604645,0.2599999904632568,-0.0010908305412158,0.0,0.0,0.0,-0.0,5.950350522994995,-0.00542643318049,-1.564039603234156,0.5127303925765603
5.892101287841797,0.0,0.0,-0.4000000059604645,0.2599999904632568,-0.0010908305412158,0.0,0.0,0.0,-0.0,5.9601476192474365,-0.0054183497284469,-1.5640258186059175,0.5128732808401033
5.892101287841797,0.0,0.0,-0.4000000059604645,0.2599999904632568,-0.0010908305412158,0.0,0.0,0.0,-0.0,5.970399379730225,-0.0054296278205657,-1.56403313394539,0.512823374718525
5.892101287841797,0.0,0.0,-0.4000000059604645,0.2599999904632568,-0.0010908305412158,0.0,0.0,0.0,-0.0,5.980280160903931,-0.0054193113686749,-1.5640237187096588,0.5127397678938783
5.992504119873047,0.0,0.0,-0.4000000059604645,0.270000010728836,-0.0010908305412158,0.0,0.0,0.0,-0.0,5.990207195281982,-0.0054130429328136,-1.5640366390128442,0.5126739708771587
5.992504119873047,0.0,0.0,-0.4000000059604645,0.270000010728836,-0.0010908305412158,0.0,0.0,0.0,-0.0,6.000451326370239,-0.0054093606489698,-1.5640346713526267,0.512930828488003
5.992504119873047,0.0,0.0,-0.4000000059604645,0.270000010728836,-0.0010908305412158,0.0,0.0,0.0,-0.0,6.0103230476379395,-0.0054283715249923,-1.5640320166256332,0.5128054223837901
5.992504119873047,0.0,0.0,-0.4000000059604645,0.270000010728836,-0.0010908305412158,0.0,0.0,0.0,-0.0,6.020383596420288,-0.0054276249462182,-1.5640315431969545,0.512796088351848
5.992504119873047,0.0,0.0,-0.4000000059604645,0.270000010728836,-0.0010908305412158,0.0,0.0,0.0,-0.0,6.030189514160156,-0.0054191762328033,-1.564028234104215,0.5128608573746076
5.992504119873047,0.0,0.0,-0.4000000059604645,0.270000010728836,-0.0010908305412158,0.0,0.0,0.0,-0.0,6.040239334106445,-0.005421739817016,-1.5640456661723898,0.5127875985248027
5.992504119873047,0.0,0.0,-0.4000000059604645,0.270000010728836,-0.0010908305412158,0.0,0.0,0.0,-0.0,6.050116777420044,-0.0054051044289258,-1.564037331992474,0.5128276647513084
5.992504119873047,0.0,0.0,-0.4000000059604645,0.270000010728836,-0.0010908305412158,0.0,0.0,0.0,-0.0,6.060488939285278,-0.0054065742822409,-1.5640354559138443,0.5128646848947428
5.992504119873047,0.0,0.0,-0.4000000059604645,0.270000010728836,-0.0010908305412158,0.0,0.0,0.0,-0.0,6.0706586837768555,-0.0054074149878934,-1.5640414519652437,0.512908279981401
5.992504119873047,0.0,0.0,-0.4000000059604645,0.270000010728836,-0.0010908305412158,0.0,0.0,0.0,-0.0,6.080223321914673,-0.0054157006124767,-1.5640312029112695,0.5129301307273162
6.088253021240234,0.0,0.0,-0.4399999976158142,0.25,0.0010908305412158,0.0,0.0,0.0,-0.0,6.090517044067383,-0.0054255772451041,-1.564030697767149,0.512792686565686
6.088253021240234,0.0,0.0,-0.4399999976158142,0.25,0.0010908305412158,0.0,0.0,0.0,-0.0,6.100508213043213,-0.0054280746040614,-1.5640395687961932,0.5128720361524255
6.088253021240234,0.0,0.0,-0.4399999976158142,0.25,0.0010908305412158,0.0,0.0,0.0,-0.0,6.110243320465088,-0.005423227621667,-1.5640499512253103,0.5127900038336526
6.088253021240234,0.0,0.0,-0.4399999976158142,0.25,0.0010908305412158,0.0,0.0,0.0,-0.0,6.120577812194824,-0.0054040214325544,-1.564048333461182,0.5126476029907003
6.088253021240234,0.0,0.0,-0.4399999976158142,0.25,0.0010908305412158,0.0,0.0,0.0,-0.0,6.130373239517212,-0.0054012417276141,-1.5640446836677468,0.5128022453192467
6.088253021240234,0.0,0.0,-0.4399999976158142,0.25,0.0010908305412158,0.0,0.0,0.0,-0.0,6.140403985977173,-0.0054102950126353,-1.5640326482249451,0.5128615877679922
6.088253021240234,0.0,0.0,-0.4399999976158142,0.25,0.0010908305412158,0.0,0.0,0.0,-0.0,6.1503746509552,-0.0054188548653485,-1.5640337641059094,0.5129149969261675
6.088253021240234,0.0,0.0,-0.4399999976158142,0.25,0.0010908305412158,0.0,0.0,0.0,-0.0,6.160151720046997,-0.0054319646723411,-1.5640291214733082,0.5128469642935972
6.088253021240234,0.0,0.0,-0.4399999976158142,0.25,0.0010908305412158,0.0,0.0,0.0,-0.0,6.170433521270752,-0.0054358228789292,-1.5640287686203165,0.5127780266834184
6.088253021240234,0.0,0.0,-0.4399999976158142,0.25,0.0010908305412158,0.0,0.0,0.0,-0.0,6.180544376373291,-0.0054095548658682,-1.564030667370638,0.5129013817918666
6.188594818115234,0.0,0.0,-0.3499999940395355,0.2800000011920929,-0.0010908305412158,0.0,0.0,0.0,-0.0,6.190073251724243,-0.0054078959844021,-1.56404159743478,0.512891701399671
6.188594818115234,0.0,0.0,-0.3499999940395355,0.2800000011920929,-0.0010908305412158,0.0,0.0,0.0,-0.0,6.200769424438477,-0.005406394799647,-1.5640444992420095,0.5128287172469339
6.188594818115234,0.0,0.0,-0.3499999940395355,0.2800000011920929,-0.0010908305412158,0.0,0.0,0.0,-0.0,6.210179805755615,-0.0054001658998316,-1.5640461494626203,0.5127975254879235
6.188594818115234,0.0,0.0,-0.3499999940395355,0.2800000011920929,-0.0010908305412158,0.0,0.0,0.0,-0.0,6.220421314239502,-0.0054060605088296,-1.5640444418525918,0.512818735829178
6.188594818115234,0.0,0.0,-0.3499999940395355,0.2800000011920929,-0.0010908305412158,0.0,0.0,0.0,-0.0,6.230302333831787,-0.0054262184547438,-1.5640255536045649,0.5127728406304689
6.188594818115234,0.0,0.0,-0.3499999940395355,0.2800000011920929,-0.0010908305412158,0.0,0.0,0.0,-0.0,6.240063428878784,-0.0054223034069164,-1.5640288691147524,0.5127230276006082
6.188594818115234,0.0,0.0,-0.3499999940395355,0.2800000011920929,-0.0010908305412158,0.0,0.0,0.0,-0.0,6.250351667404175,-0.0054362692522496,-1.5640365919134014,0.5128517053960013
6.188594818115234,0.0,0.0,-0.3499999940395355,0.2800000011920929,-0.0010908305412158,0.0,0.0,0.0,-0.0,6.260563850402832,-0.0054157082984102,-1.56402802201345,0.5128074736936795
6.188594818115234,0.0,0.0,-0.3499999940395355,0.2800000011920929,-0.0010908305412158,0.0,0.0,0.0,-0.0,6.2712562084198,-0.0054090306688549,-1.564039824098058,0.5128705996158265
6.188594818115234,0.0,0.0,-0.3499999940395355,0.2800000011920929,-0.0010908305412158,0.0,0.0,0.0,-0.0,6.280320167541504,-0.0053958482535857,-1.5640302121142555,0.5127776383909253
6.289459228515625,0.0,0.0,-0.3899999856948852,0.25,0.0010908305412158,0.0,0.0,0.0,-0.0,6.290137767791748,-0.0054134863110274,-1.564047441520226,0.5127543865410912
6.289459228515625,0.0,0.0,-0.3899999856948852,0.25,0.0010908305412158,0.0,0.0,0.0,-0.0,6.300321102142334,-0.0054181857402747,-1.5640356650792495,0.51282658916129
6.289459228515625,0.0,0.0,-0.3899999856948852,0.25,0.0010908305412158,0.0,0.0,0.0,-0.0,6.310162782669067,-0.005432559714237,-1.5640343470348037,0.5127899400788378
6.289459228515625,0.0,0.0,-0.3899999856948852,0.25,0.0010908305412158,0.0,0.0,0.0,-0.0,6.320288419723511,-0.0054283856973622,-1.5640290035721305,0.51288586203405
6.289459228515625,0.0,0.0,-0.3899999856948852,0.25,0.0010908305412158,0.0,0.0,0.0,-0.0,6.3299665451049805,-0.0054238088198185,-1.5640333229393653,0.5128709226331918
6.289459228515625,0.0,0.0,-0.3899999856948852,0.25,0.0010908305412158,0.0,0.0,0.0,-0.0,6.34037184715271,-0.0054116686538912,-1.564030978173128,0.5127534711712004
6.289459228515625,0.0,0.0,-0.3899999856948852,0.25,0.0010908305412158,0.0,0.0,0.0,-0.0,6.350372791290283,-0.0054174099251687,-1.5640315302901333,0.5128888391115599
6.289459228515625,0.0,0.0,-0.3899999856948852,0.25,0.0010908305412158,0.0,0.0,0.0,-0.0,6.360218524932861,-0.0054177400681375,-1.564044378300955,0.5128296720352865
6.289459228515625,0.0,0.0,-0.3899999856948852,0.25,0.0010908305412158,0.0,0.0,0.0,-0.0,6.370481252670288,-0.0054132944406097,-1.5640430315264195,0.5127594815247338
6.289459228515625,0.0,0.0,-0.3899999856948852,0.25,0.0010908305412158,0.0,0.0,0.0,-0.0,6.380476236343384,-0.0054179262523263,-1.5640350411406287,0.5128090786371963
6.3868255615234375,0.0,0.0,-0.3600000143051147,0.2399999946355819,-0.0021816610824316,0.0,0.0,0.0,-0.0,6.390152454376221,-0.0054157699234433,-1.5640377408030952,0.5129038956240978
6.3868255615234375,0.0,0.0,-0.3600000143051147,0.2399999946355819,-0.0021816610824316,0.0,0.0,0.0,-0.0,6.400433540344238,-0.0054089354443473,-1.564039105521124,0.5126836703473922
6.3868255615234375,0.0,0.0,-0.3600000143051147,0.2399999946355819,-0.0021816610824316,0.0,0.0,0.0,-0.0,6.409959316253662,-0.0054196033306055,-1.564037895184953,0.5128401994258391
6.3868255615234375,0.0,0.0,-0.3600000143051147,0.2399999946355819,-0.0021816610824316,0.0,0.0,0.0,-0.0,6.420371055603027,-0.0054171843559955,-1.564038588097442,0.5128090957762756
6.3868255615234375,0.0,0.0,-0.3600000143051147,0.2399999946355819,-0.0021816610824316,0.0,0.0,0.0,-0.0,6.430424928665161,-0.0054242437143302,-1.5640300513361012,0.5127713495946064
6.3868255615234375,0.0,0.0,-0.3600000143051147,0.2399999946355819,-0.0021816610824316,0.0,0.0,0.0,-0.0,6.440224647521973,-0.005419749073223,-1.5640339814428306,0.5128313975815424
6.3868255615234375,0.0,0.0,-0.3600000143051147,0.2399999946355819,-0.0021816610824316,0.0,0.0,0.0,-0.0,6.450249433517456,-0.0054178110160018,-1.5640304014134911,0.5127514991329758
6.3868255615234375,0.0,0.0,-0.3600000143051147,0.2399999946355819,-0.0021816610824316,0.0,0.0,0.0,-0.0,6.460594415664673,-0.0054085738063279,-1.5640419337751952,0.5128125574520019
6.3868255615234375,0.0,0.0,-0.3600000143051147,0.2399999946355819,-0.0021816610824316,0.0,0.0,0.0,-0.0,6.470670700073242,-0.0054131282323372,-1.5640248096009075,0.512653307100717
6.3868255615234375,0.0,0.0,-0.3600000143051147,0.2399999946355819,-0.0021816610824316,0.0,0.0,0.0,-0.0,6.4802069664001465,-0.0054159661887271,-1.5640437264954252,0.5129130103596677
6.4884033203125,0.0,0.0,-0.4300000071525574,0.2300000041723251,-0.0043633221648633,0.0,0.0,0.0,-0.0,6.490286588668823,-0.0054161101571509,-1.5640346783140662,0.5127129157787301
6.4884033203125,0.0,0.0,-0.4300000071525574,0.2300000041723251,-0.0043633221648633,0.0,0.0,0.0,-0.0,6.500466585159302,-0.0054238233827643,-1.5640304987437348,0.5128134666684592
6.4884033203125,0.0,0.0,-0.4300000071525574,0.2300000041723251,-0.0043633221648633,0.0,0.0,0.0,-0.0,6.510174989700317,-0.0054340204706942,-1.5640302404102902,0.5127563499882036
6.4884033203125,0.0,0.0,-0.4300000071525574,0.2300000041723251,-0.0043633221648633,0.0,0.0,0.0,-0.0,6.5203797817230225,-0.0054206644144212,-1.5640379176360868,0.5128408024158836
6.4884033203125,0.0,0.0,-0.4300000071525574,0.2300000041723251,-0.0043633221648633,0.0,0.0,0.0,-0.0,6.530400037765503,-0.0054073568916911,-1.564036332298779,0.5129446905624817
6.4884033203125,0.0,0.0,-0.4300000071525574,0.2300000041723251,-0.0043633221648633,0.0,0.0,0.0,-0.0,6.54002833366394,-0.0054055793220049,-1.564035442432428,0.5128549467378904
6.4884033203125,0.0,0.0,-0.4300000071525574,0.2300000041723251,-0.0043633221648633,0.0,0.0,0.0,-0.0,6.550293207168579,-0.0054099782799764,-1.56403243238252,0.5128328486619783
6.4884033203125,0.0,0.0,-0.4300000071525574,0.2300000041723251,-0.0043633221648633,0.0,0.0,0.0,-0.0,6.5600855350494385,-0.0054183267331344,-1.5640454176476932,0.5126438740897157
6.4884033203125,0.0,0.0,-0.4300000071525574,0.2300000041723251,-0.0043633221648633,0.0,0.0,0.0,-0.0,6.570730686187744,-0.0054205891491018,-1.564035237233922,0.5128737856479624
6.4884033203125,0.0,0.0,-0.4300000071525574,0.2300000041723251,-0.0043633221648633,0.0,0.0,0.0,-0.0,6.580606460571289,-0.0054283366571372,-1.5640338558729945,0.5126692435782574
6.58782958984375,0.0,0.0,-0.3600000143051147,0.2899999916553497,0.0010908305412158,0.0,0.0,0.0,-0.0,6.5901100635528564,-0.0054321151920606,-1.5640338537892036,0.5127176320002058
6.58782958984375,0.0,0.0,-0.3600000143051147,0.2899999916553497,0.0010908305412158,0.0,0.0,0.0,-0.0,6.600167274475098,-0.0054201254035572,-1.5640320993863908,0.5126785244311712
6.58782958984375,0.0,0.0,-0.3600000143051147,0.2899999916553497,0.0010908305412158,0.0,0.0,0.0,-0.0,6.610143661499023,-0.0054203794404458,-1.5640304223902146,0.5128410218152031
6.58782958984375,0.0,0.0,-0.3600000143051147,0.2899999916553497,0.0010908305412158,0.0,0.0,0.0,-0.0,6.620296239852905,-0.0054233975393175,-1.5640279808608173,0.5128280248989228
6.58782958984375,0.0,0.0,-0.3600000143051147,0.2899999916553497,0.0010908305412158,0.0,0.0,0.0,-0.0,6.630059719085693,-0.0054167947790055,-1.564035880217174,0.5127336755119883
6.58782958984375,0.0,0.0,-0.3600000143051147,0.2899999916553497,0.0010908305412158,0.0,0.0,0.0,-0.0,6.640000343322754,-0.0054210044685581,-1.564026807073149,0.5126987405558407
6.58782958984375,0.0,0.0,-0.3600000143051147,0.2899999916553497,0.0010908305412158,0.0,0.0,0.0,-0.0,6.650278329849243,-0.0054133282141183,-1.5640353750578289,0.5127437557406144
6.58782958984375,0.0,0.0,-0.3600000143051147,0.2899999916553497,0.0010908305412158,0.0,0.0,0.0,-0.0,6.660161733627319,-0.0054128605067299,-1.5640437818255375,0.5128140461110003
6.58782958984375,0.0,0.0,-0.3600000143051147,0.2899999916553497,0.0010908305412158,0.0,0.0,0.0,-0.0,6.670197486877441,-0.0054232860432596,-1.56402492469069,0.5128442323406999
6.58782958984375,0.0,0.0,-0.3600000143051147,0.2899999916553497,0.0010908305412158,0.0,0.0,0.0,-0.0,6.6793975830078125,-0.0054137553937865,-1.5640318424399535,0.5127714639192431
6.687034606933594,0.0,0.0,-0.4199999868869781,0.2300000041723251,0.0021816610824316,0.0,1.0,-0.0,-0.0,6.689709186553955,-0.0054260739139118,-1.564045322520097,0.5129141206290248
6.687034606933594,0.0,0.0,-0.4199999868869781,0.2300000041723251,0.0021816610824316,0.0,1.0,-0.0,-0.0,6.699661493301392,-0.0054220160031103,-1.5640311442155512,0.51298718282115
6.687034606933594,0.0,0.0,-0.4199999868869781,0.2300000041723251,0.0021816610824316,0.0,1.0,-0.0,-0.0,6.709757328033447,-0.0054290249715126,-1.5640214432574124,0.5128327637463719
6.687034606933594,0.0,0.0,-0.4199999868869781,0.2300000041723251,0.0021816610824316,0.0,1.0,-0.0,-0.0,6.7197511196136475,-0.0054288886015416,-1.5640369714377844,0.5127078719156604
6.687034606933594,0.0,0.0,-0.4199999868869781,0.2300000041723251,0.0021816610824316,0.0,1.0,-0.0,-0.0,6.729747533798218,-0.0054144917550949,-1.5640313478025607,0.51282620708021
6.687034606933594,0.0,0.0,-0.4199999868869781,0.2300000041723251,0.0021816610824316,0.0,1.0,-0.0,-0.0,6.739803314208984,-0.0054175900749529,-1.5640393278366709,0.5128314386940821
6.687034606933594,0.0,0.0,-0.4199999868869781,0.2300000041723251,0.0021816610824316,0.0,1.0,-0.0,-0.0,6.749912977218628,-0.0054222862698818,-1.5640358375014507,0.5127141693176631
6.687034606933594,0.0,0.0,-0.4199999868869781,0.2300000041723251,0.0021816610824316,0.0,1.0,-0.0,-0.0,6.759827136993408,-0.005413321669473,-1.5640303836993377,0.51280514573835
6.687034606933594,0.0,0.0,-0.4199999868869781,0.2300000041723251,0.0021816610824316,0.0,1.0,-0.0,-0.0,6.769987344741821,-0.0054202666157067,-1.5640374766306964,0.5128073244942418
6.687034606933594,0.0,0.0,-0.4199999868869781,0.2300000041723251,0.0021816610824316,0.0,1.0,-0.0,-0.0,6.779559373855591,-0.0054236851236798,-1.564030438879676,0.5128143683393636
6.786815643310547,0.0,0.0,-0.3499999940395355,0.2899999916553497,0.0010908305412158,0.0,1.0,-0.0,-0.0,6.789762735366821,-0.0054249284329748,-1.5640288916196818,0.5129026318478115
6.786815643310547,0.0,0.0,-0.3499999940395355,0.2899999916553497,0.0010908305412158,0.0,1.0,-0.0,-0.0,6.799662113189697,-0.005425790867907,-1.564039005758823,0.5128056704529539
6.786815643310547,0.0,0.0,-0.3499999940395355,0.2899999916553497,0.0010908305412158,0.0,1.0,-0.0,-0.0,6.809802055358887,-0.0054301339043136,-1.5640352153827766,0.5128199286937256
6.786815643310547,0.0,0.0,-0.3499999940395355,0.2899999916553497,0.0010908305412158,0.0,1.0,-0.0,-0.0,6.819971323013306,-0.0054169061830355,-1.5640381062179505,0.5127485375389235
6.786815643310547,0.0,0.0,-0.3499999940395355,0.2899999916553497,0.0010908305412158,0.0,1.0,-0.0,-0.0,6.829910516738892,-0.0054111605512661,-1.5640449746920246,0.5128086213410794
6.786815643310547,0.0,0.0,-0.3499999940395355,0.2899999916553497,0.0010908305412158,0.0,1.0,-0.0,-0.0,6.839813470840454,-0.0054198299410848,-1.5640393718785983,0.5128121951154523
6.786815643310547,0.0,0.0,-0.3499999940395355,0.2899999916553497,0.0010908305412158,0.0,1.0,-0.0,-0.0,6.849796295166016,-0.0054199509229001,-1.5640325679424212,0.5128211525916465
6.786815643310547,0.0,0.0,-0.3499999940395355,0.2899999916553497,0.0010908305412158,0.0,1.0,-0.0,-0.0,6.859907865524292,-0.0054333297929184,-1.564031254248859,0.512784509083406
6.786815643310547,0.0,0.0,-0.3499999940395355,0.2899999916553497,0.0010908305412158,0.0,1.0,-0.0,-0.0,6.870027542114258,-0.0054308512891224,-1.564028351993693,0.5128275470707034
6.786815643310547,0.0,0.0,-0.3499999940395355,0.2899999916553497,0.0010908305412158,0.0,1.0,-0.0,-0.0,6.880027532577515,-0.0054123200379529,-1.564034684711501,0.5127504144946199
6.887962341308594,0.0,0.0,-0.4399999976158142,0.2300000041723251,0.0021816610824316,0.0,1.0,-0.0,-0.0,6.889910697937012,-0.0054160625249465,-1.5640420405615776,0.5126261272477702
6.887962341308594,0.0,0.0,-0.4399999976158142,0.2300000041723251,0.0021816610824316,0.0,1.0,-0.0,-0.0,6.899736166000366,-0.0054153052817235,-1.5640312455134957,0.5127466146162619
6.887962341308594,0.0,0.0,-0.4399999976158142,0.2300000041723251,0.0021816610824316,0.0,1.0,-0.0,-0.0,6.90993332862854,-0.0054119663030921,-1.5640386179597825,0.5130096954662997
6.887962341308594,0.0,0.0,-0.4399999976158142,0.2300000041723251,0.0021816610824316,0.0,1.0,-0.0,-0.0,6.919995069503784,-0.0054263247649281,-1.5640320970757815,0.5128337915891089
6.887962341308594,0.0,0.0,-0.4399999976158142,0.2300000041723251,0.0021816610824316,0.0,1.0,-0.0,-0.0,6.929857015609741,-0.0054181046057956,-1.5640277223993737,0.5127692593578673
6.887962341308594,0.0,0.0,-0.4399999976158142,0.2300000041723251,0.0021816610824316,0.0,1.0,-0.0,-0.0,6.939894914627075,-0.0054276318268444,-1.5640316214767334,0.5127021674586777
6.887962341308594,0.0,0.0,-0.4399999976158142,0.2300000041723251,0.0021816610824316,0.0,1.0,-0.0,-0.0,6.9503045082092285,-0.0054257904944846,-1.5640259486890564,0.512867965070751
6.887962341308594,0.0,0.0,-0.4399999976158142,0.2300000041723251,0.0021816610824316,0.0,1.0,-0.0,-0.0,6.959982395172119,-0.0054137739390438,-1.5640367852247756,0.5127666908564615
6.887962341308594,0.0,0.0,-0.4399999976158142,0.2300000041723251,0.0021816610824316,0.0,1.0,-0.0,-0.0,6.970123052597046,-0.0054189572972919,-1.5640366986338052,0.5127921924748171
