elapsed time sensors,current,voltage,acc x (IMU),acc y (IMU),W (IMU),vel encoder,safety_value,throttle,steering,vicon time,vicon x,vicon y,vicon yaw
0.0,0.0,0.0,0.0,0.0,0.0,0.0,0.0,0.0,0.0,1726473748.8076696,0.5659702002746679,-0.6926099165732583,-2.420815948088043
0.0,0.0,0.0,0.0,0.0,0.0,0.0,0.0,0.0,0.0,1726473748.817729,0.5659611557399987,-0.6926176473324175,-2.42078069183338
137.62738037109375,0.0,0.0,-0.3700000047683716,0.23000000417232513,-0.002181661082431674,0.0,0.0,-0.0,-0.0,1726473748.8278732,0.5659641275179043,-0.6926106081652359,-2.420684784880242
137.62738037109375,0.0,0.0,-0.3700000047683716,0.23000000417232513,-0.002181661082431674,0.0,0.0,-0.0,-0.0,1726473748.837105,0.5659742114946249,-0.6926114949442888,-2.420649116125828
137.62738037109375,0.0,0.0,-0.3700000047683716,0.23000000417232513,-0.002181661082431674,0.0,0.0,-0.0,-0.0,1726473748.8477747,0.5659815075790293,-0.6926209439562057,-2.4206763248643446
137.62738037109375,0.0,0.0,-0.3700000047683716,0.23000000417232513,-0.002181661082431674,0.0,0.0,-0.0,-0.0,1726473748.8579702,0.5659743092723931,-0.6926084064817061,-2.420699528147091
137.62738037109375,0.0,0.0,-0.3700000047683716,0.23000000417232513,-0.002181661082431674,0.0,0.0,-0.0,-0.0,1726473748.8676357,0.5659771496570852,-0.6926075866681356,-2.420621211726438
137.62738037109375,0.0,0.0,-0.3700000047683716,0.23000000417232513,-0.002181661082431674,0.0,0.0,-0.0,-0.0,1726473748.877731,0.5659740864536259,-0.6926071893965822,-2.420557067383552
137.62738037109375,0.0,0.0,-0.3700000047683716,0.23000000417232513,-0.002181661082431674,0.0,0.0,-0.0,-0.0,1726473748.887639,0.5659619069200662,-0.6926145068260324,-2.4207232754407673
137.62738037109375,0.0,0.0,-0.3700000047683716,0.23000000417232513,-0.002181661082431674,0.0,0.0,-0.0,-0.0,1726473748.89801,0.5659710352979307,-0.6926117176681923,-2.420656188725613
137.62738037109375,0.0,0.0,-0.3700000047683716,0.23000000417232513,-0.002181661082431674,0.0,0.0,-0.0,-0.0,1726473748.9083707,0.5659737927103765,-0.6926059038492658,-2.4206525271885884
137.62738037109375,0.0,0.0,-0.3700000047683716,0.23000000417232513,-0.002181661082431674,0.0,0.0,-0.0,-0.0,1726473748.9182122,0.5659730718534025,-0.692616708158568,-2.420718088879178
137.7293243408203,0.0,0.0,-0.41999998688697815,0.20000000298023224,-0.002181661082431674,0.0,0.0,-0.0,-0.0,1726473748.9277282,0.5659735045000579,-0.6926162964800069,-2.420800544085047
137.7293243408203,0.0,0.0,-0.41999998688697815,0.20000000298023224,-0.002181661082431674,0.0,0.0,-0.0,-0.0,1726473748.9375985,0.5659743905829594,-0.6926067078292665,-2.4206480836671362
137.7293243408203,0.0,0.0,-0.41999998688697815,0.20000000298023224,-0.002181661082431674,0.0,0.0,-0.0,-0.0,1726473748.9481125,0.5659779452348812,-0.6926159282395686,-2.4207682962236747
137.7293243408203,0.0,0.0,-0.41999998688697815,0.20000000298023224,-0.002181661082431674,0.0,0.0,-0.0,-0.0,1726473748.9577522,0.5659742166795699,-0.6926133998635985,-2.4206630080721085
137.7293243408203,0.0,0.0,-0.41999998688697815,0.20000000298023224,-0.002181661082431674,0.0,0.0,-0.0,-0.0,1726473748.9685037,0.5659668364380291,-0.6926078838381012,-2.4206899595156783
137.7293243408203,0.0,0.0,-0.41999998688697815,0.20000000298023224,-0.002181661082431674,0.0,0.0,-0.0,-0.0,1726473748.9781234,0.5659647355508173,-0.6926052866253227,-2.420739320347315
137.7293243408203,0.0,0.0,-0.41999998688697815,0.20000000298023224,-0.002181661082431674,0.0,0.0,-0.0,-0.0,1726473748.9881172,0.5659772805872791,-0.6926079424639968,-2.42061969675961
137.7293243408203,0.0,0.0,-0.41999998688697815,0.20000000298023224,-0.002181661082431674,0.0,0.0,-0.0,-0.0,1726473748.9983108,0.5659811534659815,-0.6926122429161885,-2.4207653022152913
137.7293243408203,0.0,0.0,-0.41999998688697815,0.20000000298023224,-0.002181661082431674,0.0,0.0,-0.0,-0.0,1726473749.008074,0.5659718216568478,-0.6926142448257081,-2.420712630203936
137.7293243408203,0.0,0.0,-0.41999998688697815,0.20000000298023224,-0.002181661082431674,0.0,0.0,-0.0,-0.0,1726473749.01814,0.5659796052328891,-0.6926107778341762,-2.420768419543427
137.8297119140625,0.0,0.0,-0.4000000059604645,0.23000000417232513,-0.001090830541215837,0.0,0.0,-0.0,-0.0,1726473749.028025,0.5659738354654583,-0.6926055450945117,-2.420813723695236
137.8297119140625,0.0,0.0,-0.4000000059604645,0.23000000417232513,-0.001090830541215837,0.0,0.0,-0.0,-0.0,1726473749.0381846,0.5659736891430932,-0.692611574723482,-2.4206563418903038
137.8297119140625,0.0,0.0,-0.4000000059604645,0.23000000417232513,-0.001090830541215837,0.0,0.0,-0.0,-0.0,1726473749.0480058,0.5659682465086031,-0.6926078455475063,-2.420655968345325
137.8297119140625,0.0,0.0,-0.4000000059604645,0.23000000417232513,-0.001090830541215837,0.0,0.0,-0.0,-0.0,1726473749.0579545,0.5659695057479525,-0.6926065751570337,-2.420703623767362
137.8297119140625,0.0,0.0,-0.4000000059604645,0.23000000417232513,-0.001090830541215837,0.0,0.0,-0.0,-0.0,1726473749.0678134,0.565969417879832,-0.6926110322244851,-2.4207196169646323
137.8297119140625,0.0,0.0,-0.4000000059604645,0.23000000417232513,-0.001090830541215837,0.0,0.0,-0.0,-0.0,1726473749.0781226,0.5659657140415165,-0.6926027649067809,-2.420809164390599
137.8297119140625,0.0,0.0,-0.4000000059604645,0.23000000417232513,-0.001090830541215837,0.0,0.0,-0.0,-0.0,1726473749.088081,0.5659720224676305,-0.6926126091539333,-2.4207152151562594
137.8297119140625,0.0,0.0,-0.4000000059604645,0.23000000417232513,-0.001090830541215837,0.0,0.0,-0.0,-0.0,1726473749.0983026,0.5659801805788552,-0.6926154398449745,-2.420736969638324
137.8297119140625,0.0,0.0,-0.4000000059604645,0.23000000417232513,-0.001090830541215837,0.0,0.0,-0.0,-0.0,1726473749.1081414,0.5659693202610707,-0.6926142879161408,-2.4207440365056674
137.8297119140625,0.0,0.0,-0.4000000059604645,0.23000000417232513,-0.001090830541215837,0.0,0.0,-0.0,-0.0,1726473749.118383,0.5659795836631976,-0.6926265231012786,-2.4206648754419313
137.92832946777344,0.0,0.0,-0.3799999952316284,0.23000000417232513,0.0,0.0,0.0,-0.0,-0.0,1726473749.128099,0.5659729843752237,-0.6926117238150229,-2.420793420483204
137.92832946777344,0.0,0.0,-0.3799999952316284,0.23000000417232513,0.0,0.0,0.0,-0.0,-0.0,1726473749.1381812,0.56597494860156,-0.6926232370541084,-2.4208541124814715
137.92832946777344,0.0,0.0,-0.3799999952316284,0.23000000417232513,0.0,0.0,0.0,-0.0,-0.0,1726473749.1477766,0.5659700995063094,-0.6926046462273675,-2.420738298451388
137.92832946777344,0.0,0.0,-0.3799999952316284,0.23000000417232513,0.0,0.0,0.0,-0.0,-0.0,1726473749.15791,0.5659683361738236,-0.6926148165263881,-2.4207905041086386
137.92832946777344,0.0,0.0,-0.3799999952316284,0.23000000417232513,0.0,0.0,0.0,-0.0,-0.0,1726473749.168173,0.5659770820316419,-0.6926147901671399,-2.420655865380429
137.92832946777344,0.0,0.0,-0.3799999952316284,0.23000000417232513,0.0,0.0,0.0,-0.0,-0.0,1726473749.1779006,0.5659766498087692,-0.6926056715182083,-2.420668774612336
137.92832946777344,0.0,0.0,-0.3799999952316284,0.23000000417232513,0.0,0.0,0.0,-0.0,-0.0,1726473749.1879122,0.5659740537060519,-0.6926128241655152,-2.4208079090007946
137.92832946777344,0.0,0.0,-0.3799999952316284,0.23000000417232513,0.0,0.0,0.0,-0.0,-0.0,1726473749.1982203,0.5659751989948412,-0.692605617165652,-2.4207193867916197
137.92832946777344,0.0,0.0,-0.3799999952316284,0.23000000417232513,0.0,0.0,0.0,-0.0,-0.0,1726473749.2080243,0.5659763233124758,-0.6926136694414284,-2.4207330821513566
137.92832946777344,0.0,0.0,-0.3799999952316284,0.23000000417232513,0.0,0.0,0.0,-0.0,-0.0,1726473749.2179954,0.5659697391105944,-0.6925999649851218,-2.4206510639235272
137.92832946777344,0.0,0.0,-0.3799999952316284,0.23000000417232513,0.0,0.0,0.0,-0.0,-0.0,1726473749.227424,0.5659705184265376,-0.6926044793189633,-2.4207093731163667
138.0332489013672,0.0,0.0,-0.4399999976158142,0.20000000298023224,-0.001090830541215837,0.0,0.0,-0.0,-0.0,1726473749.2370293,0.5659716579193564,-0.6926105397452537,-2.420633385616691
138.0332489013672,0.0,0.0,-0.4399999976158142,0.20000000298023224,-0.001090830541215837,0.0,0.0,-0.0,-0.0,1726473749.2478075,0.5659698417436106,-0.6926139330335852,-2.420780972379598
138.0332489013672,0.0,0.0,-0.4399999976158142,0.20000000298023224,-0.001090830541215837,0.0,0.0,-0.0,-0.0,1726473749.257617,0.5659730688322935,-0.6926208455461091,-2.420687410214674
138.0332489013672,0.0,0.0,-0.4399999976158142,0.20000000298023224,-0.001090830541215837,0.0,0.0,-0.0,-0.0,1726473749.2675104,0.5659703434548304,-0.6926117469600642,-2.420588464542156
138.0332489013672,0.0,0.0,-0.4399999976158142,0.20000000298023224,-0.001090830541215837,0.0,0.0,-0.0,-0.0,1726473749.278055,0.5659683710796486,-0.6926107048421766,-2.420780462872827
138.0332489013672,0.0,0.0,-0.4399999976158142,0.20000000298023224,-0.001090830541215837,0.0,0.0,-0.0,-0.0,1726473749.2877014,0.5659799216858012,-0.6926108146475976,-2.42055311419062
138.0332489013672,0.0,0.0,-0.4399999976158142,0.20000000298023224,-0.001090830541215837,0.0,0.0,-0.0,-0.0,1726473749.297681,0.5659671797725813,-0.6926109937824871,-2.420737213100473
138.0332489013672,0.0,0.0,-0.4399999976158142,0.20000000298023224,-0.001090830541215837,0.0,0.0,-0.0,-0.0,1726473749.307895,0.565978869107652,-0.6926122229644193,-2.420738517369742
138.0332489013672,0.0,0.0,-0.4399999976158142,0.20000000298023224,-0.001090830541215837,0.0,0.0,-0.0,-0.0,1726473749.3178442,0.5659718948126724,-0.6926117962112297,-2.4206521619369457
138.12960815429688,0.0,0.0,-0.4300000071525574,0.2199999988079071,0.004363322164863348,0.0,0.0,-0.0,-0.0,1726473749.3276014,0.5659765392214378,-0.6926111898513745,-2.4207049204000426
138.12960815429688,0.0,0.0,-0.4300000071525574,0.2199999988079071,0.004363322164863348,0.0,0.0,-0.0,-0.0,1726473749.3371818,0.5659727606967926,-0.6926133541572751,-2.4207826360410034
138.12960815429688,0.0,0.0,-0.4300000071525574,0.2199999988079071,0.004363322164863348,0.0,0.0,-0.0,-0.0,1726473749.3472416,0.565968793650566,-0.6926069342896775,-2.4208130163563037
138.12960815429688,0.0,0.0,-0.4300000071525574,0.2199999988079071,0.004363322164863348,0.0,0.0,-0.0,-0.0,1726473749.357087,0.5659782219393189,-0.6926030614634316,-2.4206631252318958
138.12960815429688,0.0,0.0,-0.4300000071525574,0.2199999988079071,0.004363322164863348,0.0,0.0,-0.0,-0.0,1726473749.3672376,0.5659701361622872,-0.692603179153678,-2.4208304242376832
138.12960815429688,0.0,0.0,-0.4300000071525574,0.2199999988079071,0.004363322164863348,0.0,0.0,-0.0,-0.0,1726473749.377561,0.5659762540629412,-0.6926102076130335,-2.4205776108810295
138.12960815429688,0.0,0.0,-0.4300000071525574,0.2199999988079071,0.004363322164863348,0.0,0.0,-0.0,-0.0,1726473749.3872707,0.5659714119616209,-0.692598331028692,-2.420624413947357
138.12960815429688,0.0,0.0,-0.4300000071525574,0.2199999988079071,0.004363322164863348,0.0,0.0,-0.0,-0.0,1726473749.3977282,0.5659739230602623,-0.6926188670417548,-2.4208608451818283
138.12960815429688,0.0,0.0,-0.4300000071525574,0.2199999988079071,0.004363322164863348,0.0,0.0,-0.0,-0.0,1726473749.4073246,0.5659823738971251,-0.6926174827787612,-2.4208719102000344
138.12960815429688,0.0,0.0,-0.4300000071525574,0.2199999988079071,0.004363322164863348,0.0,0.0,-0.0,-0.0,1726473749.4177783,0.5659746096620744,-0.6926022526783829,-2.4206514502808796
138.22848510742188,0.0,0.0,-0.3700000047683716,0.23000000417232513,0.0,0.0,0.0,-0.0,-0.0,1726473749.4275932,0.565968555935913,-0.692606529862625,-2.420555896935589
138.22848510742188,0.0,0.0,-0.3700000047683716,0.23000000417232513,0.0,0.0,0.0,-0.0,-0.0,1726473749.4376395,0.5659695981200998,-0.6926080656813653,-2.4208687823662722
138.22848510742188,0.0,0.0,-0.3700000047683716,0.23000000417232513,0.0,0.0,0.0,-0.0,-0.0,1726473749.4476116,0.565968434417337,-0.6926033688264002,-2.420723015609441
138.22848510742188,0.0,0.0,-0.3700000047683716,0.23000000417232513,0.0,0.0,0.0,-0.0,-0.0,1726473749.457794,0.5659727826944799,-0.6926019879771846,-2.420823913550542
138.22848510742188,0.0,0.0,-0.3700000047683716,0.23000000417232513,0.0,0.0,0.0,-0.0,-0.0,1726473749.4672692,0.5659789087045393,-0.692610913143839,-2.4207797138740808
138.22848510742188,0.0,0.0,-0.3700000047683716,0.23000000417232513,0.0,0.0,0.0,-0.0,-0.0,1726473749.4776523,0.5659666417994604,-0.6926102461426973,-2.4207691735804664
138.22848510742188,0.0,0.0,-0.3700000047683716,0.23000000417232513,0.0,0.0,0.0,-0.0,-0.0,1726473749.487675,0.5659718872757212,-0.6926210963343918,-2.420721524642741
138.22848510742188,0.0,0.0,-0.3700000047683716,0.23000000417232513,0.0,0.0,0.0,-0.0,-0.0,1726473749.4976168,0.565969602090575,-0.6926048742217924,-2.4207723150936213
138.22848510742188,0.0,0.0,-0.3700000047683716,0.23000000417232513,0.0,0.0,0.0,-0.0,-0.0,1726473749.5073924,0.5659676314098268,-0.6926052391080043,-2.420647724006331
138.22848510742188,0.0,0.0,-0.3700000047683716,0.23000000417232513,0.0,0.0,0.0,-0.0,-0.0,1726473749.517666,0.5659675649878974,-0.6926081466081723,-2.4207290039350164
138.3285369873047,0.0,0.0,-0.46000000834465027,0.20999999344348907,0.002181661082431674,0.0,0.0,-0.0,-0.0,1726473749.5275676,0.5659761799642918,-0.6926171084543067,-2.420691645608436
138.3285369873047,0.0,0.0,-0.46000000834465027,0.20999999344348907,0.002181661082431674,0.0,0.0,-0.0,-0.0,1726473749.5376167,0.5659736653002092,-0.6926181163808723,-2.4207218827818813
138.3285369873047,0.0,0.0,-0.46000000834465027,0.20999999344348907,0.002181661082431674,0.0,0.0,-0.0,-0.0,1726473749.5476465,0.5659710610529687,-0.6926139405205716,-2.420678673008133
138.3285369873047,0.0,0.0,-0.46000000834465027,0.20999999344348907,0.002181661082431674,0.0,0.0,-0.0,-0.0,1726473749.5577807,0.5659602671637526,-0.6926051488856834,-2.420722647025789
138.3285369873047,0.0,0.0,-0.46000000834465027,0.20999999344348907,0.002181661082431674,0.0,0.0,-0.0,-0.0,1726473749.5678377,0.5659749187512741,-0.69261075288187,-2.4206120483334397
138.3285369873047,0.0,0.0,-0.46000000834465027,0.20999999344348907,0.002181661082431674,0.0,0.0,-0.0,-0.0,1726473749.5776494,0.5659684638812367,-0.6926061749634795,-2.420681029418201
138.3285369873047,0.0,0.0,-0.46000000834465027,0.20999999344348907,0.002181661082431674,0.0,0.0,-0.0,-0.0,1726473749.5880804,0.5659617514141212,-0.6926110660361324,-2.4208243698983267
138.3285369873047,0.0,0.0,-0.46000000834465027,0.20999999344348907,0.002181661082431674,0.0,0.0,-0.0,-0.0,1726473749.5983546,0.5659740365571478,-0.6926086848613343,-2.4207822289762393
138.3285369873047,0.0,0.0,-0.46000000834465027,0.20999999344348907,0.002181661082431674,0.0,0.0,-0.0,-0.0,1726473749.60797,0.5659674552931768,-0.692617769094945,-2.4206700339901257
138.3285369873047,0.0,0.0,-0.46000000834465027,0.20999999344348907,0.002181661082431674,0.0,0.0,-0.0,-0.0,1726473749.6180077,0.5659678019175239,-0.6926097872324639,-2.4208376786616017
138.42543029785156,0.0,0.0,-0.41999998688697815,0.2199999988079071,0.001090830541215837,0.0,0.0,-0.0,-0.0,1726473749.6281269,0.565972242857113,-0.6926173770285112,-2.4207076370213585
138.42543029785156,0.0,0.0,-0.41999998688697815,0.2199999988079071,0.001090830541215837,0.0,0.0,-0.0,-0.0,1726473749.6381502,0.5659743692105932,-0.6926213523029231,-2.420684726050875
138.42543029785156,0.0,0.0,-0.41999998688697815,0.2199999988079071,0.001090830541215837,0.0,0.0,-0.0,-0.0,1726473749.6480122,0.5659763597060492,-0.6926170348252185,-2.420523122197441
138.42543029785156,0.0,0.0,-0.41999998688697815,0.2199999988079071,0.001090830541215837,0.0,0.0,-0.0,-0.0,1726473749.65792,0.5659723452645737,-0.6926140419285183,-2.420910820505253
138.42543029785156,0.0,0.0,-0.41999998688697815,0.2199999988079071,0.001090830541215837,0.0,0.0,-0.0,-0.0,1726473749.6681569,0.5659764521477254,-0.6926134524238793,-2.4207688692713543
138.42543029785156,0.0,0.0,-0.41999998688697815,0.2199999988079071,0.001090830541215837,0.0,0.0,-0.0,-0.0,1726473749.6783347,0.56596893248156,-0.6926147753251904,-2.420698279653335
138.42543029785156,0.0,0.0,-0.41999998688697815,0.2199999988079071,0.001090830541215837,0.0,0.0,-0.0,-0.0,1726473749.6878428,0.5659756779070723,-0.6926084819481266,-2.4208056442978036
138.42543029785156,0.0,0.0,-0.41999998688697815,0.2199999988079071,0.001090830541215837,0.0,0.0,-0.0,-0.0,1726473749.6981316,0.5659611643638978,-0.6926081043491658,-2.4208027413931124
138.42543029785156,0.0,0.0,-0.41999998688697815,0.2199999988079071,0.001090830541215837,0.0,0.0,-0.0,-0.0,1726473749.7080436,0.5659738570328989,-0.6926097443750777,-2.4208030883035168
138.42543029785156,0.0,0.0,-0.41999998688697815,0.2199999988079071,0.001090830541215837,0.0,0.0,-0.0,-0.0,1726473749.7186236,0.5659719103274622,-0.6926153318277262,-2.420853911869925
138.525634765625,0.0,0.0,-0.4300000071525574,0.23000000417232513,0.001090830541215837,0.0,0.0,-0.0,-0.0,1726473749.727778,0.565974354927609,-0.6926128354765391,-2.420641390401888
138.525634765625,0.0,0.0,-0.4300000071525574,0.23000000417232513,0.001090830541215837,0.0,0.0,-0.0,-0.0,1726473749.737933,0.5659780696786669,-0.692609010227424,-2.4206413938034794
138.525634765625,0.0,0.0,-0.4300000071525574,0.23000000417232513,0.001090830541215837,0.0,0.0,-0.0,-0.0,1726473749.7480876,0.5659653877677481,-0.6926059147042761,-2.4207858050207065
138.525634765625,0.0,0.0,-0.4300000071525574,0.23000000417232513,0.001090830541215837,0.0,0.0,-0.0,-0.0,1726473749.7582114,0.5659726054594219,-0.692607963228252,-2.4208221555714706
138.525634765625,0.0,0.0,-0.4300000071525574,0.23000000417232513,0.001090830541215837,0.0,0.0,-0.0,-0.0,1726473749.7682276,0.5659648889324417,-0.6926071162769919,-2.4207634332207024
138.525634765625,0.0,0.0,-0.4300000071525574,0.23000000417232513,0.001090830541215837,0.0,0.0,-0.0,-0.0,1726473749.7781394,0.5659641952443434,-0.6926173445963758,-2.4205850159256266
138.525634765625,0.0,0.0,-0.4300000071525574,0.23000000417232513,0.001090830541215837,0.0,0.0,-0.0,-0.0,1726473749.7879786,0.5659771215220326,-0.6926179904548573,-2.4207504419153483
138.525634765625,0.0,0.0,-0.4300000071525574,0.23000000417232513,0.001090830541215837,0.0,0.0,-0.0,-0.0,1726473749.7972395,0.5659772476009791,-0.6926055621769132,-2.420654217098016
138.525634765625,0.0,0.0,-0.4300000071525574,0.23000000417232513,0.001090830541215837,0.0,0.0,-0.0,-0.0,1726473749.8071222,0.565969184263267,-0.6926160892359862,-2.420718936051819
138.525634765625,0.0,0.0,-0.4300000071525574,0.23000000417232513,0.001090830541215837,0.0,0.0,-0.0,-0.0,1726473749.8170667,0.5659632662735022,-0.6926091818178934,-2.4207367190444895
138.62677001953125,0.0,0.0,-0.3700000047683716,0.23999999463558197,0.002181661082431674,0.0,0.0,-0.0,-0.0,1726473749.827612,0.5659688063147277,-0.692606395649774,-2.4205642399049965
138.62677001953125,0.0,0.0,-0.3700000047683716,0.23999999463558197,0.002181661082431674,0.0,0.0,-0.0,-0.0,1726473749.837729,0.5659690018634729,-0.6926042218138364,-2.420785941793413
138.62677001953125,0.0,0.0,-0.3700000047683716,0.23999999463558197,0.002181661082431674,0.0,0.0,-0.0,-0.0,1726473749.847655,0.5659668847504783,-0.6926047836944054,-2.4207879615279797
138.62677001953125,0.0,0.0,-0.3700000047683716,0.23999999463558197,0.002181661082431674,0.0,0.0,-0.0,-0.0,1726473749.857586,0.5659696515861329,-0.6926101488398386,-2.4206841468979308
138.62677001953125,0.0,0.0,-0.3700000047683716,0.23999999463558197,0.002181661082431674,0.0,0.0,-0.0,-0.0,1726473749.8676925,0.5659828055757884,-0.6926113631932814,-2.420633491733104
138.62677001953125,0.0,0.0,-0.3700000047683716,0.23999999463558197,0.002181661082431674,0.0,0.0,-0.0,-0.0,1726473749.8776917,0.5659651909417313,-0.6926015638256945,-2.4207937208400048
138.62677001953125,0.0,0.0,-0.3700000047683716,0.23999999463558197,0.002181661082431674,0.0,0.0,-0.0,-0.0,1726473749.8879914,0.5659809373571607,-0.6926019174044817,-2.420624494860191
138.62677001953125,0.0,0.0,-0.3700000047683716,0.23999999463558197,0.002181661082431674,0.0,0.0,-0.0,-0.0,1726473749.8980064,0.5659727338236765,-0.6926059712611666,-2.4206470897577326
138.62677001953125,0.0,0.0,-0.3700000047683716,0.23999999463558197,0.002181661082431674,0.0,0.0,-0.0,-0.0,1726473749.907988,0.5659653816615751,-0.6926007690528685,-2.4206698626652483
138.62677001953125,0.0,0.0,-0.3700000047683716,0.23999999463558197,0.002181661082431674,0.0,0.0,-0.0,-0.0,1726473749.917504,0.5659701542908518,-0.6926047171757763,-2.4206349011379986
138.72412109375,0.0,0.0,-0.46000000834465027,0.20999999344348907,-0.001090830541215837,0.0,0.0,-0.0,-0.0,1726473749.9277883,0.5659764386263721,-0.6926015307084568,-2.4206923835444147
138.72412109375,0.0,0.0,-0.46000000834465027,0.20999999344348907,-0.001090830541215837,0.0,0.0,-0.0,-0.0,1726473749.9379263,0.5659826282125043,-0.6926126818131401,-2.4206664791947325
138.72412109375,0.0,0.0,-0.46000000834465027,0.20999999344348907,-0.001090830541215837,0.0,0.0,-0.0,-0.0,1726473749.9481401,0.5659652985327204,-0.6926057572342667,-2.4206935171538344
138.72412109375,0.0,0.0,-0.46000000834465027,0.20999999344348907,-0.001090830541215837,0.0,0.0,-0.0,-0.0,1726473749.9582841,0.5659834718468407,-0.6925998353989238,-2.420791159632099
138.72412109375,0.0,0.0,-0.46000000834465027,0.20999999344348907,-0.001090830541215837,0.0,0.0,-0.0,-0.0,1726473749.9685502,0.5659613464973361,-0.6925967299988779,-2.4205963952929093
138.72412109375,0.0,0.0,-0.46000000834465027,0.20999999344348907,-0.001090830541215837,0.0,0.0,-0.0,-0.0,1726473749.9784,0.5659680398116029,-0.6925971355494231,-2.4206491107764783
138.72412109375,0.0,0.0,-0.46000000834465027,0.20999999344348907,-0.001090830541215837,0.0,0.0,-0.0,-0.0,1726473749.988098,0.5659764166446193,-0.692602492935885,-2.4207814106534733
138.72412109375,0.0,0.0,-0.46000000834465027,0.20999999344348907,-0.001090830541215837,0.0,0.0,-0.0,-0.0,1726473749.9980192,0.5659737890752639,-0.6926160341070509,-2.420738610227651
138.72412109375,0.0,0.0,-0.46000000834465027,0.20999999344348907,-0.001090830541215837,0.0,0.0,-0.0,-0.0,1726473750.007942,0.5659759030364812,-0.6926091115975381,-2.420691229660098
138.72412109375,0.0,0.0,-0.46000000834465027,0.20999999344348907,-0.001090830541215837,0.0,0.0,-0.0,-0.0,1726473750.018386,0.5659748369908498,-0.6926077641890047,-2.4207629185574517
138.82518005371094,0.0,0.0,-0.4000000059604645,0.25,0.001090830541215837,0.0,0.0,-0.0,-0.0,1726473750.028294,0.5659728534291254,-0.6926093370878625,-2.4206144160142222
138.82518005371094,0.0,0.0,-0.4000000059604645,0.25,0.001090830541215837,0.0,0.0,-0.0,-0.0,1726473750.0381818,0.5659760206156275,-0.6926074417651484,-2.420626477032202
138.82518005371094,0.0,0.0,-0.4000000059604645,0.25,0.001090830541215837,0.0,0.0,-0.0,-0.0,1726473750.0484955,0.5659723520152155,-0.6926098314620259,-2.420779604140999
138.82518005371094,0.0,0.0,-0.4000000059604645,0.25,0.001090830541215837,0.0,0.0,-0.0,-0.0,1726473750.0583115,0.565970298795939,-0.6926131761629789,-2.4206834295905604
138.82518005371094,0.0,0.0,-0.4000000059604645,0.25,0.001090830541215837,0.0,0.0,-0.0,-0.0,1726473750.0676618,0.565968959808924,-0.6926145829773838,-2.420585360699422
138.82518005371094,0.0,0.0,-0.4000000059604645,0.25,0.001090830541215837,0.0,0.0,-0.0,-0.0,1726473750.0770407,0.5659674461230346,-0.6926206034526088,-2.420813339412819
138.82518005371094,0.0,0.0,-0.4000000059604645,0.25,0.001090830541215837,0.0,0.0,-0.0,-0.0,1726473750.087487,0.5659678302755996,-0.6926072137611627,-2.4207582761648707
138.82518005371094,0.0,0.0,-0.4000000059604645,0.25,0.001090830541215837,0.0,0.0,-0.0,-0.0,1726473750.0974548,0.5659728523463821,-0.6926152746754415,-2.420675619224834
138.82518005371094,0.0,0.0,-0.4000000059604645,0.25,0.001090830541215837,0.0,0.0,-0.0,-0.0,1726473750.1072297,0.5659687546799458,-0.6926153764542033,-2.420681949098476
138.82518005371094,0.0,0.0,-0.4000000059604645,0.25,0.001090830541215837,0.0,0.0,-0.0,-0.0,1726473750.1177256,0.5659675225385267,-0.6926194297261483,-2.420547281307756
138.9253387451172,0.0,0.0,-0.4399999976158142,0.20000000298023224,0.001090830541215837,0.0,0.0,-0.0,-0.0,1726473750.1272182,0.5659685606430298,-0.6926071935180915,-2.4206813881139704
138.9253387451172,0.0,0.0,-0.4399999976158142,0.20000000298023224,0.001090830541215837,0.0,0.0,-0.0,-0.0,1726473750.1370466,0.5659689256241076,-0.6926059780276629,-2.4206645997507397
138.9253387451172,0.0,0.0,-0.4399999976158142,0.20000000298023224,0.001090830541215837,0.0,0.0,-0.0,-0.0,1726473750.1473997,0.5659650911687371,-0.6926132156978323,-2.420806813515342
138.9253387451172,0.0,0.0,-0.4399999976158142,0.20000000298023224,0.001090830541215837,0.0,0.0,-0.0,-0.0,1726473750.1570857,0.5659740414197801,-0.692618179788251,-2.4207167412026496
138.9253387451172,0.0,0.0,-0.4399999976158142,0.20000000298023224,0.001090830541215837,0.0,0.0,-0.0,-0.0,1726473750.1673155,0.5659795039236103,-0.6926249436793078,-2.4206574571148662
138.9253387451172,0.0,0.0,-0.4399999976158142,0.20000000298023224,0.001090830541215837,0.0,0.0,-0.0,-0.0,1726473750.177252,0.5659772376132947,-0.6926183923998798,-2.4207137627778126
138.9253387451172,0.0,0.0,-0.4399999976158142,0.20000000298023224,0.001090830541215837,0.0,0.0,-0.0,-0.0,1726473750.187066,0.5659723545888098,-0.6926139359989582,-2.420811311665876
138.9253387451172,0.0,0.0,-0.4399999976158142,0.20000000298023224,0.001090830541215837,0.0,0.0,-0.0,-0.0,1726473750.197486,0.5659796998455282,-0.6926207171968516,-2.4207731172276543
138.9253387451172,0.0,0.0,-0.4399999976158142,0.20000000298023224,0.001090830541215837,0.0,0.0,-0.0,-0.0,1726473750.2072504,0.5659668515891145,-0.692608248294203,-2.420721337149676
138.9253387451172,0.0,0.0,-0.4399999976158142,0.20000000298023224,0.001090830541215837,0.0,0.0,-0.0,-0.0,1726473750.2174597,0.5659640859245603,-0.6926026492726213,-2.420684573390521
139.02442932128906,0.0,0.0,-0.3700000047683716,0.25999999046325684,-0.002181661082431674,0.0,0.0,-0.0,-0.0,1726473750.227497,0.5659682273083355,-0.6926125530241151,-2.4207055502043215
139.02442932128906,0.0,0.0,-0.3700000047683716,0.25999999046325684,-0.002181661082431674,0.0,0.0,-0.0,-0.0,1726473750.2372823,0.5659741168275088,-0.6926111331430727,-2.42077917918202
139.02442932128906,0.0,0.0,-0.3700000047683716,0.25999999046325684,-0.002181661082431674,0.0,0.0,-0.0,-0.0,1726473750.247833,0.5659859522945436,-0.6926195054953689,-2.4206851438301036
139.02442932128906,0.0,0.0,-0.3700000047683716,0.25999999046325684,-0.002181661082431674,0.0,0.0,-0.0,-0.0,1726473750.2576334,0.5659843447698131,-0.6926179714698679,-2.42053724176699
139.02442932128906,0.0,0.0,-0.3700000047683716,0.25999999046325684,-0.002181661082431674,0.0,0.0,-0.0,-0.0,1726473750.2676892,0.5659847959793539,-0.6926162253772444,-2.4206418681216055
139.02442932128906,0.0,0.0,-0.3700000047683716,0.25999999046325684,-0.002181661082431674,0.0,0.0,-0.0,-0.0,1726473750.2775297,0.5659844245283813,-0.6926150154061342,-2.420914538485479
139.02442932128906,0.0,0.0,-0.3700000047683716,0.25999999046325684,-0.002181661082431674,0.0,0.0,-0.0,-0.0,1726473750.2875588,0.5659677150764316,-0.6926070088232383,-2.4207795247668598
139.02442932128906,0.0,0.0,-0.3700000047683716,0.25999999046325684,-0.002181661082431674,0.0,0.0,-0.0,-0.0,1726473750.2975845,0.5659755268807399,-0.6926106841078233,-2.4207414500921307
139.02442932128906,0.0,0.0,-0.3700000047683716,0.25999999046325684,-0.002181661082431674,0.0,0.0,-0.0,-0.0,1726473750.3076305,0.5659778123506004,-0.6926168088438698,-2.420749007665615
139.02442932128906,0.0,0.0,-0.3700000047683716,0.25999999046325684,-0.002181661082431674,0.0,0.0,-0.0,-0.0,1726473750.3183925,0.5659877366166912,-0.6926074630647937,-2.4208413249783596
139.12625122070312,0.0,0.0,-0.46000000834465027,0.2199999988079071,-0.001090830541215837,0.0,0.0,-0.0,-0.0,1726473750.327721,0.5659831254754774,-0.6926024408406538,-2.4207836888606256
139.12625122070312,0.0,0.0,-0.46000000834465027,0.2199999988079071,-0.001090830541215837,0.0,0.0,-0.0,-0.0,1726473750.3380032,0.5659793358326737,-0.6926013329668294,-2.420596497445429
139.12625122070312,0.0,0.0,-0.46000000834465027,0.2199999988079071,-0.001090830541215837,0.0,0.0,-0.0,-0.0,1726473750.3481386,0.5659762291773818,-0.6926140112349943,-2.420781052567553
139.12625122070312,0.0,0.0,-0.46000000834465027,0.2199999988079071,-0.001090830541215837,0.0,0.0,-0.0,-0.0,1726473750.3580196,0.565966717138863,-0.6926116389044353,-2.4207051288969943
139.12625122070312,0.0,0.0,-0.46000000834465027,0.2199999988079071,-0.001090830541215837,0.0,0.0,-0.0,-0.0,1726473750.3679848,0.5659692546667647,-0.692603655877832,-2.420786047895528
139.12625122070312,0.0,0.0,-0.46000000834465027,0.2199999988079071,-0.001090830541215837,0.0,0.0,-0.0,-0.0,1726473750.3781633,0.5659758116339099,-0.6926073889756805,-2.4207081890177826
139.12625122070312,0.0,0.0,-0.46000000834465027,0.2199999988079071,-0.001090830541215837,0.0,0.0,-0.0,-0.0,1726473750.3881862,0.5659716652651756,-0.6926064081641119,-2.420726374417079
139.12625122070312,0.0,0.0,-0.46000000834465027,0.2199999988079071,-0.001090830541215837,0.0,0.0,-0.0,-0.0,1726473750.3980217,0.565986509955011,-0.6926118863245215,-2.420733435766621
139.12625122070312,0.0,0.0,-0.46000000834465027,0.2199999988079071,-0.001090830541215837,0.0,0.0,-0.0,-0.0,1726473750.4081032,0.5659742376595761,-0.6926055010281502,-2.420660641312436
139.12625122070312,0.0,0.0,-0.46000000834465027,0.2199999988079071,-0.001090830541215837,0.0,0.0,-0.0,-0.0,1726473750.418275,0.5659649098476973,-0.6926013167597108,-2.4206789203612322
139.22561645507812,0.0,0.0,-0.4300000071525574,0.23000000417232513,-0.001090830541215837,0.0,0.0,-0.0,-0.0,1726473750.4279654,0.5659611587952684,-0.692614659053826,-2.4208021700828133
139.22561645507812,0.0,0.0,-0.4300000071525574,0.23000000417232513,-0.001090830541215837,0.0,0.0,-0.0,-0.0,1726473750.438015,0.5659686896846403,-0.6926104783885959,-2.4208247528696094
139.22561645507812,0.0,0.0,-0.4300000071525574,0.23000000417232513,-0.001090830541215837,0.0,0.0,-0.0,-0.0,1726473750.4481819,0.5659682995820194,-0.692619355818413,-2.4205589942517376
139.22561645507812,0.0,0.0,-0.4300000071525574,0.23000000417232513,-0.001090830541215837,0.0,0.0,-0.0,-0.0,1726473750.4579048,0.5659783807572973,-0.6926117610760877,-2.4206412544259295
139.22561645507812,0.0,0.0,-0.4300000071525574,0.23000000417232513,-0.001090830541215837,0.0,0.0,-0.0,-0.0,1726473750.4679608,0.565974118529764,-0.6926144722159797,-2.4205970002789776
139.22561645507812,0.0,0.0,-0.4300000071525574,0.23000000417232513,-0.001090830541215837,0.0,0.0,-0.0,-0.0,1726473750.4778502,0.5659780347814249,-0.6926122191638836,-2.420700463426896
139.22561645507812,0.0,0.0,-0.4300000071525574,0.23000000417232513,-0.001090830541215837,0.0,0.0,-0.0,-0.0,1726473750.488169,0.5659646555671489,-0.6926151170051648,-2.420547939444769
139.22561645507812,0.0,0.0,-0.4300000071525574,0.23000000417232513,-0.001090830541215837,0.0,0.0,-0.0,-0.0,1726473750.4981644,0.5659678504840586,-0.6926167747221008,-2.420756138705486
139.22561645507812,0.0,0.0,-0.4300000071525574,0.23000000417232513,-0.001090830541215837,0.0,0.0,-0.0,-0.0,1726473750.5082982,0.5659668453996642,-0.6926175909431669,-2.4207626022617457
139.22561645507812,0.0,0.0,-0.4300000071525574,0.23000000417232513,-0.001090830541215837,0.0,0.0,-0.0,-0.0,1726473750.518114,0.5659733764986024,-0.6926300626473336,-2.420730169537086
139.32501220703125,0.0,0.0,-0.38999998569488525,0.23999999463558197,-0.001090830541215837,0.0,0.0,-0.0,-0.0,1726473750.5280294,0.5659705978814401,-0.6926054847640721,-2.420755340383444
139.32501220703125,0.0,0.0,-0.38999998569488525,0.23999999463558197,-0.001090830541215837,0.0,0.0,-0.0,-0.0,1726473750.5382307,0.5659714950648816,-0.6926136109343298,-2.4207384247665535
139.32501220703125,0.0,0.0,-0.38999998569488525,0.23999999463558197,-0.001090830541215837,0.0,0.0,-0.0,-0.0,1726473750.5478132,0.5659685778193211,-0.692609275269418,-2.4208412990554082
139.32501220703125,0.0,0.0,-0.38999998569488525,0.23999999463558197,-0.001090830541215837,0.0,0.0,-0.0,-0.0,1726473750.55812,0.5659660403505286,-0.6926135525441037,-2.420751634008794
139.32501220703125,0.0,0.0,-0.38999998569488525,0.23999999463558197,-0.001090830541215837,0.0,0.0,-0.0,-0.0,1726473750.5678284,0.5659584513220925,-0.6926166594073224,-2.4206297905838525
139.32501220703125,0.0,0.0,-0.38999998569488525,0.23999999463558197,-0.001090830541215837,0.0,0.0,-0.0,-0.0,1726473750.5778706,0.5659557023826632,-0.6926178231514425,-2.4207362041812406
139.32501220703125,0.0,0.0,-0.38999998569488525,0.23999999463558197,-0.001090830541215837,0.0,0.0,-0.0,-0.0,1726473750.587823,0.5659710776696634,-0.6926139333528307,-2.42081737269363
139.32501220703125,0.0,0.0,-0.38999998569488525,0.23999999463558197,-0.001090830541215837,0.0,0.0,-0.0,-0.0,1726473750.5978756,0.5659718475013825,-0.6926145564236809,-2.4207726516902017
139.32501220703125,0.0,0.0,-0.38999998569488525,0.23999999463558197,-0.001090830541215837,0.0,0.0,-0.0,-0.0,1726473750.6078982,0.5659714142246643,-0.6926067347397611,-2.4206304736508217
139.32501220703125,0.0,0.0,-0.38999998569488525,0.23999999463558197,-0.001090830541215837,0.0,0.0,-0.0,-0.0,1726473750.6179502,0.5659711497149224,-0.6926142528978834,-2.4207122683329723
139.4250030517578,0.0,0.0,-0.36000001430511475,0.25,-0.001090830541215837,0.0,0.0,-0.0,-0.0,1726473750.6277802,0.565970980211896,-0.6926139698233135,-2.4206436611005144
139.4250030517578,0.0,0.0,-0.36000001430511475,0.25,-0.001090830541215837,0.0,0.0,-0.0,-0.0,1726473750.6379921,0.5659692382675721,-0.6926120839864902,-2.4207328976269773
139.4250030517578,0.0,0.0,-0.36000001430511475,0.25,-0.001090830541215837,0.0,0.0,-0.0,-0.0,1726473750.6480536,0.5659730798254557,-0.6926030880383757,-2.420657029817198
139.4250030517578,0.0,0.0,-0.36000001430511475,0.25,-0.001090830541215837,0.0,0.0,-0.0,-0.0,1726473750.6580036,0.5659814789350733,-0.6926102267397641,-2.4207851335923842
139.4250030517578,0.0,0.0,-0.36000001430511475,0.25,-0.001090830541215837,0.0,0.0,-0.0,-0.0,1726473750.6678872,0.5659799833395018,-0.6926082831774003,-2.4209062410646824
139.4250030517578,0.0,0.0,-0.36000001430511475,0.25,-0.001090830541215837,0.0,0.0,-0.0,-0.0,1726473750.6780462,0.5659770232793554,-0.6926095028371416,-2.420637153859855
139.4250030517578,0.0,0.0,-0.36000001430511475,0.25,-0.001090830541215837,0.0,0.0,-0.0,-0.0,1726473750.688122,0.5659727306337019,-0.6926112097656671,-2.4205493099348305
139.4250030517578,0.0,0.0,-0.36000001430511475,0.25,-0.001090830541215837,0.0,0.0,-0.0,-0.0,1726473750.6979961,0.5659875082973153,-0.6926105013332037,-2.420659630154883
139.4250030517578,0.0,0.0,-0.36000001430511475,0.25,-0.001090830541215837,0.0,0.0,-0.0,-0.0,1726473750.7081463,0.5659807702604335,-0.6926038013387713,-2.4207116974749687
139.4250030517578,0.0,0.0,-0.36000001430511475,0.25,-0.001090830541215837,0.0,0.0,-0.0,-0.0,1726473750.7184618,0.5659750573017195,-0.6926062157978974,-2.4206544930122904
139.5249786376953,0.0,0.0,-0.4399999976158142,0.2199999988079071,0.0,0.0,0.0,-0.0,-0.0,1726473750.727797,0.5659761187787328,-0.6926014815297667,-2.420751533328963
139.5249786376953,0.0,0.0,-0.4399999976158142,0.2199999988079071,0.0,0.0,0.0,-0.0,-0.0,1726473750.7378454,0.5659795472701075,-0.6926017748315046,-2.4207285981550806
139.5249786376953,0.0,0.0,-0.4399999976158142,0.2199999988079071,0.0,0.0,0.0,-0.0,-0.0,1726473750.7481205,0.5659769407089472,-0.6926092225077041,-2.4207007507427494
139.5249786376953,0.0,0.0,-0.4399999976158142,0.2199999988079071,0.0,0.0,0.0,-0.0,-0.0,1726473750.757914,0.5659744492751583,-0.6926113244280788,-2.4206584052438043
139.5249786376953,0.0,0.0,-0.4399999976158142,0.2199999988079071,0.0,0.0,0.0,-0.0,-0.0,1726473750.768033,0.5659727404036313,-0.6926015703910189,-2.4207778280881036
139.5249786376953,0.0,0.0,-0.4399999976158142,0.2199999988079071,0.0,0.0,0.0,-0.0,-0.0,1726473750.7781236,0.5659782486191123,-0.692606766485149,-2.4207864703915956
139.5249786376953,0.0,0.0,-0.4399999976158142,0.2199999988079071,0.0,0.0,0.0,-0.0,-0.0,1726473750.7879012,0.5659744627856336,-0.6926052761410912,-2.4209307436627987
139.5249786376953,0.0,0.0,-0.4399999976158142,0.2199999988079071,0.0,0.0,0.0,-0.0,-0.0,1726473750.798178,0.5659751446081004,-0.6926084335467461,-2.420550675204441
139.5249786376953,0.0,0.0,-0.4399999976158142,0.2199999988079071,0.0,0.0,0.0,-0.0,-0.0,1726473750.807908,0.5659761111747739,-0.6926109806382961,-2.4207666950076776
139.5249786376953,0.0,0.0,-0.4399999976158142,0.2199999988079071,0.0,0.0,0.0,-0.0,-0.0,1726473750.8180444,0.5659667318644083,-0.692603944372617,-2.4207067741646786
139.62498474121094,0.0,0.0,-0.41999998688697815,0.2199999988079071,-0.001090830541215837,0.0,0.0,-0.0,-0.0,1726473750.827825,0.5659705954878407,-0.692612373318612,-2.420755668370649
139.62498474121094,0.0,0.0,-0.41999998688697815,0.2199999988079071,-0.001090830541215837,0.0,0.0,-0.0,-0.0,1726473750.8379383,0.565976877337383,-0.69261409572262,-2.420643265094096
139.62498474121094,0.0,0.0,-0.41999998688697815,0.2199999988079071,-0.001090830541215837,0.0,0.0,-0.0,-0.0,1726473750.8479455,0.5659754907456852,-0.6926111256330006,-2.4206169086466227
139.62498474121094,0.0,0.0,-0.41999998688697815,0.2199999988079071,-0.001090830541215837,0.0,0.0,-0.0,-0.0,1726473750.8580678,0.5659660051539743,-0.6926124316100989,-2.4207347806579858
139.62498474121094,0.0,0.0,-0.41999998688697815,0.2199999988079071,-0.001090830541215837,0.0,0.0,-0.0,-0.0,1726473750.8679109,0.5659737841554159,-0.6926065015847305,-2.420740593283287
139.62498474121094,0.0,0.0,-0.41999998688697815,0.2199999988079071,-0.001090830541215837,0.0,0.0,-0.0,-0.0,1726473750.8782935,0.5659740200064854,-0.6926201467871574,-2.420754108247037
139.62498474121094,0.0,0.0,-0.41999998688697815,0.2199999988079071,-0.001090830541215837,0.0,0.0,-0.0,-0.0,1726473750.8880205,0.5659590195162341,-0.6926127542433247,-2.4206414812438943
139.62498474121094,0.0,0.0,-0.41999998688697815,0.2199999988079071,-0.001090830541215837,0.0,0.0,-0.0,-0.0,1726473750.8978348,0.5659738594146939,-0.6926112108718205,-2.420805816474633
139.62498474121094,0.0,0.0,-0.41999998688697815,0.2199999988079071,-0.001090830541215837,0.0,0.0,-0.0,-0.0,1726473750.907742,0.5659694114021289,-0.6926158371405025,-2.420668268146249
139.62498474121094,0.0,0.0,-0.41999998688697815,0.2199999988079071,-0.001090830541215837,0.0,0.0,-0.0,-0.0,1726473750.9180403,0.5659698677028201,-0.6926222961013402,-2.4206811985207937
139.72442626953125,0.0,0.0,-0.38999998569488525,0.23999999463558197,0.002181661082431674,0.0,0.0,-0.0,-0.0,1726473750.9277384,0.5659810508201524,-0.6926142014398452,-2.420783350891079
139.72442626953125,0.0,0.0,-0.38999998569488525,0.23999999463558197,0.002181661082431674,0.0,0.0,-0.0,-0.0,1726473750.9379582,0.5659699868942304,-0.692620889957085,-2.4206994225803458
139.72442626953125,0.0,0.0,-0.38999998569488525,0.23999999463558197,0.002181661082431674,0.0,0.0,-0.0,-0.0,1726473750.947603,0.5659785595928738,-0.6926143094985507,-2.420815441425071
139.72442626953125,0.0,0.0,-0.38999998569488525,0.23999999463558197,0.002181661082431674,0.0,0.0,-0.0,-0.0,1726473750.9574666,0.5659705454231447,-0.6926149462460232,-2.4207657554300352
139.72442626953125,0.0,0.0,-0.38999998569488525,0.23999999463558197,0.002181661082431674,0.0,0.0,-0.0,-0.0,1726473750.9679415,0.5659680901514139,-0.6926109008223661,-2.4206583333748806
139.72442626953125,0.0,0.0,-0.38999998569488525,0.23999999463558197,0.002181661082431674,0.0,0.0,-0.0,-0.0,1726473750.9779665,0.5659752205561661,-0.692619133878725,-2.420832750459954
139.72442626953125,0.0,0.0,-0.38999998569488525,0.23999999463558197,0.002181661082431674,0.0,0.0,-0.0,-0.0,1726473750.9880097,0.5659720558766902,-0.6926078974124832,-2.4207840196523303
139.72442626953125,0.0,0.0,-0.38999998569488525,0.23999999463558197,0.002181661082431674,0.0,0.0,-0.0,-0.0,1726473750.9980912,0.5659737177139134,-0.6926150378964597,-2.4206512023636306
139.72442626953125,0.0,0.0,-0.38999998569488525,0.23999999463558197,0.002181661082431674,0.0,0.0,-0.0,-0.0,1726473751.0079598,0.5659674694110837,-0.6926032946984078,-2.420540634148484
139.8218536376953,0.0,0.0,-0.46000000834465027,0.1899999976158142,-0.001090830541215837,0.0,0.0,-0.0,-0.0,1726473751.0177934,0.5659821188474163,-0.6926026355472432,-2.420776985504005
139.8218536376953,0.0,0.0,-0.46000000834465027,0.1899999976158142,-0.001090830541215837,0.0,0.0,-0.0,-0.0,1726473751.0280824,0.5659697394280045,-0.6926165647704953,-2.4206111222339652
139.8218536376953,0.0,0.0,-0.46000000834465027,0.1899999976158142,-0.001090830541215837,0.0,0.0,-0.0,-0.0,1726473751.0381188,0.5659897574219955,-0.6926021352076162,-2.420670332475639
139.8218536376953,0.0,0.0,-0.46000000834465027,0.1899999976158142,-0.001090830541215837,0.0,0.0,-0.0,-0.0,1726473751.0484557,0.565978100101483,-0.6926086406156325,-2.4205804838570155
139.8218536376953,0.0,0.0,-0.46000000834465027,0.1899999976158142,-0.001090830541215837,0.0,0.0,-0.0,-0.0,1726473751.0578363,0.5659745456733009,-0.6926151821733121,-2.4207727204338054
139.8218536376953,0.0,0.0,-0.46000000834465027,0.1899999976158142,-0.001090830541215837,0.0,0.0,-0.0,-0.0,1726473751.0682464,0.5659757806592423,-0.6926160940563232,-2.4207655344329937
139.8218536376953,0.0,0.0,-0.46000000834465027,0.1899999976158142,-0.001090830541215837,0.0,0.0,-0.0,-0.0,1726473751.078121,0.5659660458992364,-0.6926002099468157,-2.420745796114509
139.8218536376953,0.0,0.0,-0.46000000834465027,0.1899999976158142,-0.001090830541215837,0.0,0.0,-0.0,-0.0,1726473751.0878716,0.5659801092012162,-0.6926093425439861,-2.4206948332182447
139.8218536376953,0.0,0.0,-0.46000000834465027,0.1899999976158142,-0.001090830541215837,0.0,0.0,-0.0,-0.0,1726473751.0980268,0.5659656638689067,-0.6926086874805426,-2.420651606869384
139.8218536376953,0.0,0.0,-0.46000000834465027,0.1899999976158142,-0.001090830541215837,0.0,0.0,-0.0,-0.0,1726473751.1078227,0.5659779702670761,-0.6926100135611911,-2.4206393363252223
139.9221954345703,0.0,0.0,-0.4300000071525574,0.20999999344348907,0.0,0.0,0.0,-0.0,-0.0,1726473751.118278,0.5659760550625111,-0.6926102465673709,-2.420700610903901
139.9221954345703,0.0,0.0,-0.4300000071525574,0.20999999344348907,0.0,0.0,0.0,-0.0,-0.0,1726473751.1278458,0.5659718566656252,-0.692609968809678,-2.420675539809894
139.9221954345703,0.0,0.0,-0.4300000071525574,0.20999999344348907,0.0,0.0,0.0,-0.0,-0.0,1726473751.1380823,0.5659704182582397,-0.6926015106183974,-2.4207244532525
139.9221954345703,0.0,0.0,-0.4300000071525574,0.20999999344348907,0.0,0.0,0.0,-0.0,-0.0,1726473751.1480906,0.5659632640284569,-0.6926053753050048,-2.4206964568183205
139.9221954345703,0.0,0.0,-0.4300000071525574,0.20999999344348907,0.0,0.0,0.0,-0.0,-0.0,1726473751.1578526,0.56596694610968,-0.6925981690471532,-2.4208416271361033
139.9221954345703,0.0,0.0,-0.4300000071525574,0.20999999344348907,0.0,0.0,0.0,-0.0,-0.0,1726473751.1680694,0.5659695902881963,-0.6926086992255687,-2.420548816139696
139.9221954345703,0.0,0.0,-0.4300000071525574,0.20999999344348907,0.0,0.0,0.0,-0.0,-0.0,1726473751.177858,0.5659791500841881,-0.6926194121141896,-2.420805234856478
139.9221954345703,0.0,0.0,-0.4300000071525574,0.20999999344348907,0.0,0.0,0.0,-0.0,-0.0,1726473751.1878183,0.5659718595664177,-0.6926185101611971,-2.4208672614831372
139.9221954345703,0.0,0.0,-0.4300000071525574,0.20999999344348907,0.0,0.0,0.0,-0.0,-0.0,1726473751.197801,0.5659660499982636,-0.6926182797242146,-2.420690740131451
139.9221954345703,0.0,0.0,-0.4300000071525574,0.20999999344348907,0.0,0.0,0.0,-0.0,-0.0,1726473751.2080927,0.5659659222616439,-0.6926076482838215,-2.420743449517772
139.9221954345703,0.0,0.0,-0.4300000071525574,0.20999999344348907,0.0,0.0,0.0,-0.0,-0.0,1726473751.218056,0.565959771808208,-0.6926160868897162,-2.4206552804121615
140.0243377685547,0.0,0.0,-0.4099999964237213,0.23999999463558197,-0.001090830541215837,0.0,0.0,-0.0,-0.0,1726473751.2279947,0.5659624993018806,-0.6926069034393452,-2.4206008754644053
140.0243377685547,0.0,0.0,-0.4099999964237213,0.23999999463558197,-0.001090830541215837,0.0,0.0,-0.0,-0.0,1726473751.2378397,0.5659656243610403,-0.6926193746022518,-2.4208056637341206
140.0243377685547,0.0,0.0,-0.4099999964237213,0.23999999463558197,-0.001090830541215837,0.0,0.0,-0.0,-0.0,1726473751.247118,0.5659702747994785,-0.6926106686000517,-2.420814548449492
140.0243377685547,0.0,0.0,-0.4099999964237213,0.23999999463558197,-0.001090830541215837,0.0,0.0,-0.0,-0.0,1726473751.2573972,0.5659714770688085,-0.692607785830022,-2.4208041558043054
140.0243377685547,0.0,0.0,-0.4099999964237213,0.23999999463558197,-0.001090830541215837,0.0,0.0,-0.0,-0.0,1726473751.2678866,0.5659680674350797,-0.6926092933293613,-2.4207454945736373
140.0243377685547,0.0,0.0,-0.4099999964237213,0.23999999463558197,-0.001090830541215837,0.0,0.0,-0.0,-0.0,1726473751.2780294,0.5659681152009913,-0.6926017820305858,-2.4207524068859088
140.0243377685547,0.0,0.0,-0.4099999964237213,0.23999999463558197,-0.001090830541215837,0.0,0.0,-0.0,-0.0,1726473751.287762,0.5659647288565851,-0.6926079645601851,-2.420867989352256
140.0243377685547,0.0,0.0,-0.4099999964237213,0.23999999463558197,-0.001090830541215837,0.0,0.0,-0.0,-0.0,1726473751.2980993,0.5659784845020379,-0.6926171216287998,-2.420757398268257
140.0243377685547,0.0,0.0,-0.4099999964237213,0.23999999463558197,-0.001090830541215837,0.0,0.0,-0.0,-0.0,1726473751.3079128,0.565965954245533,-0.692605153035376,-2.4208033792654717
140.12210083007812,0.0,0.0,-0.44999998807907104,0.1899999976158142,0.0,0.0,0.0,-0.0,-0.0,1726473751.318077,0.5659793813645654,-0.692601935743362,-2.4206226685868706
140.12210083007812,0.0,0.0,-0.44999998807907104,0.1899999976158142,0.0,0.0,0.0,-0.0,-0.0,1726473751.327799,0.5659683914561261,-0.6926080030857353,-2.420733298131953
140.12210083007812,0.0,0.0,-0.44999998807907104,0.1899999976158142,0.0,0.0,0.0,-0.0,-0.0,1726473751.3378701,0.5659758689970493,-0.6926108836664232,-2.4207532070856024
140.12210083007812,0.0,0.0,-0.44999998807907104,0.1899999976158142,0.0,0.0,0.0,-0.0,-0.0,1726473751.3480468,0.5659725801080023,-0.6926046546944848,-2.4208273880994287
140.12210083007812,0.0,0.0,-0.44999998807907104,0.1899999976158142,0.0,0.0,0.0,-0.0,-0.0,1726473751.3584492,0.5659656146109602,-0.6925994685910566,-2.420680694993538
140.12210083007812,0.0,0.0,-0.44999998807907104,0.1899999976158142,0.0,0.0,0.0,-0.0,-0.0,1726473751.3681402,0.5659712673181463,-0.6926188515132365,-2.4207277427982516
140.12210083007812,0.0,0.0,-0.44999998807907104,0.1899999976158142,0.0,0.0,0.0,-0.0,-0.0,1726473751.3781815,0.5659761525049471,-0.6926121036304104,-2.420651304447394
140.12210083007812,0.0,0.0,-0.44999998807907104,0.1899999976158142,0.0,0.0,0.0,-0.0,-0.0,1726473751.38787,0.5659766912603864,-0.6926165272968245,-2.420720492617102
140.12210083007812,0.0,0.0,-0.44999998807907104,0.1899999976158142,0.0,0.0,0.0,-0.0,-0.0,1726473751.39801,0.5659741645950876,-0.6926212741039113,-2.420695497094046
140.12210083007812,0.0,0.0,-0.44999998807907104,0.1899999976158142,0.0,0.0,0.0,-0.0,-0.0,1726473751.408137,0.5659919885348635,-0.6926010664043538,-2.420590552631724
140.12210083007812,0.0,0.0,-0.44999998807907104,0.1899999976158142,0.0,0.0,0.0,-0.0,-0.0,1726473751.4180264,0.565971646186707,-0.6926103927047063,-2.420911353839227
140.2253875732422,0.0,0.0,-0.38999998569488525,0.25,-0.002181661082431674,0.0,0.0,-0.0,-0.0,1726473751.4281354,0.5659730012594298,-0.6926036104069326,-2.420759764660163
140.2253875732422,0.0,0.0,-0.38999998569488525,0.25,-0.002181661082431674,0.0,0.0,-0.0,-0.0,1726473751.4382527,0.5659779139854413,-0.6926050940441698,-2.4206018592873457
140.2253875732422,0.0,0.0,-0.38999998569488525,0.25,-0.002181661082431674,0.0,0.0,-0.0,-0.0,1726473751.4478083,0.5659783336891026,-0.6926077611087101,-2.420670211235988
140.2253875732422,0.0,0.0,-0.38999998569488525,0.25,-0.002181661082431674,0.0,0.0,-0.0,-0.0,1726473751.4579167,0.5659733612148548,-0.692611403241519,-2.4207610779697797
140.2253875732422,0.0,0.0,-0.38999998569488525,0.25,-0.002181661082431674,0.0,0.0,-0.0,-0.0,1726473751.4682255,0.565982960924209,-0.6926027506929401,-2.4208496455115482
140.2253875732422,0.0,0.0,-0.38999998569488525,0.25,-0.002181661082431674,0.0,0.0,-0.0,-0.0,1726473751.478181,0.5659777664610427,-0.6926115790277854,-2.4207287544775715
140.2253875732422,0.0,0.0,-0.38999998569488525,0.25,-0.002181661082431674,0.0,0.0,-0.0,-0.0,1726473751.4880779,0.5659781481066987,-0.6926095763223193,-2.420642046070892
140.2253875732422,0.0,0.0,-0.38999998569488525,0.25,-0.002181661082431674,0.0,0.0,-0.0,-0.0,1726473751.4980044,0.5659843931964478,-0.6926203222267098,-2.4206714409594405
140.2253875732422,0.0,0.0,-0.38999998569488525,0.25,-0.002181661082431674,0.0,0.0,-0.0,-0.0,1726473751.5077324,0.5659684019785083,-0.6926049019786472,-2.4207514242172885
140.2253875732422,0.0,0.0,-0.38999998569488525,0.25,-0.002181661082431674,0.0,0.0,-0.0,-0.0,1726473751.5182083,0.5659807278467712,-0.6926176335956942,-2.420902788136966
140.327880859375,0.0,0.0,-0.46000000834465027,0.2199999988079071,0.0,0.0,0.0,-0.0,-0.0,1726473751.5279675,0.5659765033793446,-0.6926248134800173,-2.4209201618017646
140.327880859375,0.0,0.0,-0.46000000834465027,0.2199999988079071,0.0,0.0,0.0,-0.0,-0.0,1726473751.538388,0.5659779353435321,-0.6926157557321917,-2.4205605332196543
140.327880859375,0.0,0.0,-0.46000000834465027,0.2199999988079071,0.0,0.0,0.0,-0.0,-0.0,1726473751.5481381,0.5659845704976185,-0.6926086441413957,-2.42077373360536
140.327880859375,0.0,0.0,-0.46000000834465027,0.2199999988079071,0.0,0.0,0.0,-0.0,-0.0,1726473751.5577874,0.5659708342936068,-0.6926185121749937,-2.4207830553592395
140.327880859375,0.0,0.0,-0.46000000834465027,0.2199999988079071,0.0,0.0,0.0,-0.0,-0.0,1726473751.568498,0.5659756758315163,-0.6926179518486232,-2.4207104659561347
140.327880859375,0.0,0.0,-0.46000000834465027,0.2199999988079071,0.0,0.0,0.0,-0.0,-0.0,1726473751.5780792,0.5659766331523826,-0.6926288284432006,-2.4209407233714018
140.327880859375,0.0,0.0,-0.46000000834465027,0.2199999988079071,0.0,0.0,0.0,-0.0,-0.0,1726473751.5878582,0.5659671788309693,-0.6926154742092738,-2.420709566315211
140.327880859375,0.0,0.0,-0.46000000834465027,0.2199999988079071,0.0,0.0,0.0,-0.0,-0.0,1726473751.5980017,0.565976737435521,-0.6926219685596977,-2.4207687685695296
140.327880859375,0.0,0.0,-0.46000000834465027,0.2199999988079071,0.0,0.0,0.0,-0.0,-0.0,1726473751.6075385,0.5659764590428294,-0.6926154827130457,-2.4207007037299912
140.327880859375,0.0,0.0,-0.46000000834465027,0.2199999988079071,0.0,0.0,0.0,-0.0,-0.0,1726473751.6179316,0.5659658337477217,-0.6926158394806746,-2.4205764445947775
140.4243621826172,0.0,0.0,-0.36000001430511475,0.25,0.0,0.0,0.0,-0.0,-0.0,1726473751.6270018,0.5659692458090303,-0.6926121242555274,-2.4209044051013353
140.4243621826172,0.0,0.0,-0.36000001430511475,0.25,0.0,0.0,0.0,-0.0,-0.0,1726473751.6376858,0.5659845976936502,-0.6926194806985051,-2.4207039467213276
140.4243621826172,0.0,0.0,-0.36000001430511475,0.25,0.0,0.0,0.0,-0.0,-0.0,1726473751.6476564,0.565973978109646,-0.6926144691336297,-2.420771658272518
140.4243621826172,0.0,0.0,-0.36000001430511475,0.25,0.0,0.0,0.0,-0.0,-0.0,1726473751.657635,0.5659848696376015,-0.6926154128035104,-2.420701277425152
140.4243621826172,0.0,0.0,-0.36000001430511475,0.25,0.0,0.0,0.0,-0.0,-0.0,1726473751.66752,0.5659771025903975,-0.6926259920847431,-2.42070480215791
140.4243621826172,0.0,0.0,-0.36000001430511475,0.25,0.0,0.0,0.0,-0.0,-0.0,1726473751.6775925,0.5659683044465573,-0.6926068467097402,-2.420712129058544
140.4243621826172,0.0,0.0,-0.36000001430511475,0.25,0.0,0.0,0.0,-0.0,-0.0,1726473751.6876342,0.5659746215998257,-0.692609930207255,-2.4207283789831036
140.4243621826172,0.0,0.0,-0.36000001430511475,0.25,0.0,0.0,0.0,-0.0,-0.0,1726473751.6977613,0.565977868576783,-0.6925993252951409,-2.4207948264280135
140.4243621826172,0.0,0.0,-0.36000001430511475,0.25,0.0,0.0,0.0,-0.0,-0.0,1726473751.7076716,0.5659731284162446,-0.692610212886468,-2.4208049264048035
140.4243621826172,0.0,0.0,-0.36000001430511475,0.25,0.0,0.0,0.0,-0.0,-0.0,1726473751.7180886,0.5659672135602489,-0.6926044895055251,-2.4205921358508986
140.5244140625,0.0,0.0,-0.44999998807907104,0.20000000298023224,-0.0032724919728934765,0.0,0.0,-0.0,-0.0,1726473751.727428,0.5659723000916755,-0.6926000784877242,-2.4206386352900267
140.5244140625,0.0,0.0,-0.44999998807907104,0.20000000298023224,-0.0032724919728934765,0.0,0.0,-0.0,-0.0,1726473751.7377517,0.5659735521354682,-0.6926028482440618,-2.42068401556434
140.5244140625,0.0,0.0,-0.44999998807907104,0.20000000298023224,-0.0032724919728934765,0.0,0.0,-0.0,-0.0,1726473751.747692,0.5659845625473434,-0.6925916708586812,-2.420669692319457
140.5244140625,0.0,0.0,-0.44999998807907104,0.20000000298023224,-0.0032724919728934765,0.0,0.0,-0.0,-0.0,1726473751.7577107,0.5659848957234934,-0.692602849165198,-2.4209255776285143
140.5244140625,0.0,0.0,-0.44999998807907104,0.20000000298023224,-0.0032724919728934765,0.0,0.0,-0.0,-0.0,1726473751.7682858,0.5659795288730328,-0.6926012115841036,-2.420665876461828
140.5244140625,0.0,0.0,-0.44999998807907104,0.20000000298023224,-0.0032724919728934765,0.0,0.0,-0.0,-0.0,1726473751.7781622,0.565975994249919,-0.692602594694834,-2.420742745388635
140.5244140625,0.0,0.0,-0.44999998807907104,0.20000000298023224,-0.0032724919728934765,0.0,0.0,-0.0,-0.0,1726473751.7881753,0.5659775166554525,-0.692593953965524,-2.4207644957008454
140.5244140625,0.0,0.0,-0.44999998807907104,0.20000000298023224,-0.0032724919728934765,0.0,0.0,-0.0,-0.0,1726473751.798144,0.5659684319143896,-0.6925903510298657,-2.42057560585332
140.5244140625,0.0,0.0,-0.44999998807907104,0.20000000298023224,-0.0032724919728934765,0.0,0.0,-0.0,-0.0,1726473751.8079162,0.5659808744303615,-0.6926088865805436,-2.42064199949197
140.5244140625,0.0,0.0,-0.44999998807907104,0.20000000298023224,-0.0032724919728934765,0.0,0.0,-0.0,-0.0,1726473751.818077,0.5659738378378955,-0.6926117324398993,-2.420770210910469
140.62718200683594,0.0,0.0,-0.4099999964237213,0.23999999463558197,-0.001090830541215837,0.0,0.0,-0.0,-0.0,1726473751.8282294,0.5659852887140203,-0.6926138714163745,-2.4208129143029438
140.62718200683594,0.0,0.0,-0.4099999964237213,0.23999999463558197,-0.001090830541215837,0.0,0.0,-0.0,-0.0,1726473751.8378215,0.5659823458325804,-0.6926008566187832,-2.420626758378584
140.62718200683594,0.0,0.0,-0.4099999964237213,0.23999999463558197,-0.001090830541215837,0.0,0.0,-0.0,-0.0,1726473751.8477545,0.5659641314055777,-0.692608220802697,-2.4207490191003718
140.62718200683594,0.0,0.0,-0.4099999964237213,0.23999999463558197,-0.001090830541215837,0.0,0.0,-0.0,-0.0,1726473751.8576202,0.565962491044035,-0.6926065995027876,-2.4206694414480823
140.62718200683594,0.0,0.0,-0.4099999964237213,0.23999999463558197,-0.001090830541215837,0.0,0.0,-0.0,-0.0,1726473751.8683214,0.5659800451401772,-0.6926187348092299,-2.4207201171141035
140.62718200683594,0.0,0.0,-0.4099999964237213,0.23999999463558197,-0.001090830541215837,0.0,0.0,-0.0,-0.0,1726473751.8781052,0.5659722326109594,-0.6926034691006945,-2.420964021210031
140.62718200683594,0.0,0.0,-0.4099999964237213,0.23999999463558197,-0.001090830541215837,0.0,0.0,-0.0,-0.0,1726473751.8880382,0.565970159638429,-0.6926087276252194,-2.4206910455029327
140.62718200683594,0.0,0.0,-0.4099999964237213,0.23999999463558197,-0.001090830541215837,0.0,0.0,-0.0,-0.0,1726473751.897894,0.5659746582611469,-0.6926147709880262,-2.4208605333905444
140.62718200683594,0.0,0.0,-0.4099999964237213,0.23999999463558197,-0.001090830541215837,0.0,0.0,-0.0,-0.0,1726473751.9079216,0.5659740426888074,-0.692607889090379,-2.4206284435610383
140.62718200683594,0.0,0.0,-0.4099999964237213,0.23999999463558197,-0.001090830541215837,0.0,0.0,-0.0,-0.0,1726473751.9182293,0.5659780312276675,-0.6926136855947378,-2.420680470536328
140.72433471679688,0.0,0.0,-0.38999998569488525,0.23999999463558197,0.0,0.0,0.0,-0.0,-0.0,1726473751.9277852,0.5659769067587476,-0.692607862278241,-2.4206759803094586
140.72433471679688,0.0,0.0,-0.38999998569488525,0.23999999463558197,0.0,0.0,0.0,-0.0,-0.0,1726473751.9380193,0.5659748415950157,-0.6926101128197274,-2.4207061009632453
140.72433471679688,0.0,0.0,-0.38999998569488525,0.23999999463558197,0.0,0.0,0.0,-0.0,-0.0,1726473751.948026,0.5659567386706426,-0.692602822242503,-2.420659768567933
140.72433471679688,0.0,0.0,-0.38999998569488525,0.23999999463558197,0.0,0.0,0.0,-0.0,-0.0,1726473751.957847,0.5659696793873069,-0.6926159973674365,-2.4206632373998835
140.72433471679688,0.0,0.0,-0.38999998569488525,0.23999999463558197,0.0,0.0,0.0,-0.0,-0.0,1726473751.9683106,0.5659746002323226,-0.6926247391419375,-2.4206821378376655
140.72433471679688,0.0,0.0,-0.38999998569488525,0.23999999463558197,0.0,0.0,0.0,-0.0,-0.0,1726473751.9784894,0.5659782372308004,-0.692617032008294,-2.4207778208412796
140.72433471679688,0.0,0.0,-0.38999998569488525,0.23999999463558197,0.0,0.0,0.0,-0.0,-0.0,1726473751.9878953,0.5659724035271082,-0.6926147610282006,-2.4206837484384103
140.72433471679688,0.0,0.0,-0.38999998569488525,0.23999999463558197,0.0,0.0,0.0,-0.0,-0.0,1726473751.9981487,0.5659825654921835,-0.6926198567225406,-2.4206676167493835
140.72433471679688,0.0,0.0,-0.38999998569488525,0.23999999463558197,0.0,0.0,0.0,-0.0,-0.0,1726473752.0077853,0.5659768041810727,-0.6926127395046109,-2.4208756361513677
140.72433471679688,0.0,0.0,-0.38999998569488525,0.23999999463558197,0.0,0.0,0.0,-0.0,-0.0,1726473752.0181031,0.5659712787360972,-0.6926164796424613,-2.420754992174628
140.82479858398438,0.0,0.0,-0.36000001430511475,0.25,0.0,0.0,0.0,-0.0,-0.0,1726473752.0284433,0.5659693175010517,-0.692611253944512,-2.4206944997227544
140.82479858398438,0.0,0.0,-0.36000001430511475,0.25,0.0,0.0,0.0,-0.0,-0.0,1726473752.0380259,0.5659696068697584,-0.6926075840271156,-2.4207888171171286
140.82479858398438,0.0,0.0,-0.36000001430511475,0.25,0.0,0.0,0.0,-0.0,-0.0,1726473752.0479808,0.5659849271537875,-0.6926271262438382,-2.4206446567920596
140.82479858398438,0.0,0.0,-0.36000001430511475,0.25,0.0,0.0,0.0,-0.0,-0.0,1726473752.0580068,0.5659824116079181,-0.6926073541764128,-2.420654181459841
140.82479858398438,0.0,0.0,-0.36000001430511475,0.25,0.0,0.0,0.0,-0.0,-0.0,1726473752.0681286,0.5659789478137339,-0.692604718308532,-2.4207582651424917
140.82479858398438,0.0,0.0,-0.36000001430511475,0.25,0.0,0.0,0.0,-0.0,-0.0,1726473752.078009,0.5659839406068886,-0.692619279073557,-2.4206867873416895
140.82479858398438,0.0,0.0,-0.36000001430511475,0.25,0.0,0.0,0.0,-0.0,-0.0,1726473752.087774,0.5659659732353428,-0.6926088130124742,-2.420678271560837
140.82479858398438,0.0,0.0,-0.36000001430511475,0.25,0.0,0.0,0.0,-0.0,-0.0,1726473752.0982523,0.565974215952382,-0.6926127260817097,-2.420610240926222
140.82479858398438,0.0,0.0,-0.36000001430511475,0.25,0.0,0.0,0.0,-0.0,-0.0,1726473752.1079993,0.5659774065320088,-0.6926080171529646,-2.420546268911273
140.82479858398438,0.0,0.0,-0.36000001430511475,0.25,0.0,0.0,0.0,-0.0,-0.0,1726473752.1179478,0.5659758349888029,-0.6926110018338499,-2.4207665360907957
140.92440795898438,0.0,0.0,-0.4699999988079071,0.1899999976158142,-0.001090830541215837,0.0,0.0,-0.0,-0.0,1726473752.1278641,0.5659729306252627,-0.6926168355402895,-2.420557699816638
140.92440795898438,0.0,0.0,-0.4699999988079071,0.1899999976158142,-0.001090830541215837,0.0,0.0,-0.0,-0.0,1726473752.1380434,0.5659857833333661,-0.692618019696582,-2.420689293381466
140.92440795898438,0.0,0.0,-0.4699999988079071,0.1899999976158142,-0.001090830541215837,0.0,0.0,-0.0,-0.0,1726473752.1483884,0.5659882045007371,-0.6926094206472425,-2.420719828741071
140.92440795898438,0.0,0.0,-0.4699999988079071,0.1899999976158142,-0.001090830541215837,0.0,0.0,-0.0,-0.0,1726473752.157712,0.5659720002404007,-0.6926085707896257,-2.4206655033444626
140.92440795898438,0.0,0.0,-0.4699999988079071,0.1899999976158142,-0.001090830541215837,0.0,0.0,-0.0,-0.0,1726473752.168101,0.5659733013153648,-0.6926159072062656,-2.42061618702987
140.92440795898438,0.0,0.0,-0.4699999988079071,0.1899999976158142,-0.001090830541215837,0.0,0.0,-0.0,-0.0,1726473752.1780243,0.5659689550598006,-0.6926099009191835,-2.4207188958956842
140.92440795898438,0.0,0.0,-0.4699999988079071,0.1899999976158142,-0.001090830541215837,0.0,0.0,-0.0,-0.0,1726473752.1878192,0.5659774404443534,-0.6926027607606124,-2.4208615717768636
140.92440795898438,0.0,0.0,-0.4699999988079071,0.1899999976158142,-0.001090830541215837,0.0,0.0,-0.0,-0.0,1726473752.1979516,0.5659691829661657,-0.6926027442204896,-2.4208021651402207
140.92440795898438,0.0,0.0,-0.4699999988079071,0.1899999976158142,-0.001090830541215837,0.0,0.0,-0.0,-0.0,1726473752.207812,0.5659758241295579,-0.6926072926570558,-2.420676417086013
141.0237579345703,0.0,0.0,-0.4000000059604645,0.25,-0.002181661082431674,0.0,0.0,-0.0,-0.0,1726473752.2180762,0.5659764345808251,-0.692613497514415,-2.420692996644826
141.0237579345703,0.0,0.0,-0.4000000059604645,0.25,-0.002181661082431674,0.0,0.0,-0.0,-0.0,1726473752.2278461,0.5659739463250212,-0.692625973746678,-2.420777619734062
141.0237579345703,0.0,0.0,-0.4000000059604645,0.25,-0.002181661082431674,0.0,0.0,-0.0,-0.0,1726473752.2378254,0.5659727123823067,-0.6926053432465095,-2.4206690270847018
141.0237579345703,0.0,0.0,-0.4000000059604645,0.25,-0.002181661082431674,0.0,0.0,-0.0,-0.0,1726473752.2479239,0.565966698979413,-0.6926073439450081,-2.420602483971208
141.0237579345703,0.0,0.0,-0.4000000059604645,0.25,-0.002181661082431674,0.0,0.0,-0.0,-0.0,1726473752.2575676,0.5659716864717053,-0.692608962037973,-2.420591742103861
141.0237579345703,0.0,0.0,-0.4000000059604645,0.25,-0.002181661082431674,0.0,0.0,-0.0,-0.0,1726473752.267672,0.5659714344247537,-0.6926208213666659,-2.420772670452131
141.0237579345703,0.0,0.0,-0.4000000059604645,0.25,-0.002181661082431674,0.0,0.0,-0.0,-0.0,1726473752.277394,0.5659755142467694,-0.6926177939783833,-2.420738958751898
141.0237579345703,0.0,0.0,-0.4000000059604645,0.25,-0.002181661082431674,0.0,0.0,-0.0,-0.0,1726473752.2873285,0.5659608758006263,-0.6926082651771416,-2.4207789551448027
141.0237579345703,0.0,0.0,-0.4000000059604645,0.25,-0.002181661082431674,0.0,0.0,-0.0,-0.0,1726473752.2975266,0.5659690531698215,-0.6926069941670827,-2.42068662300118
141.0237579345703,0.0,0.0,-0.4000000059604645,0.25,-0.002181661082431674,0.0,0.0,-0.0,-0.0,1726473752.307651,0.5659651827697016,-0.6926139924417772,-2.420694228010422
141.1228485107422,0.0,0.0,-0.4099999964237213,0.23999999463558197,-0.001090830541215837,0.0,1.0,-0.0,-0.0,1726473752.3178635,0.5659611667235867,-0.6926093155994465,-2.4206468575328914
141.1228485107422,0.0,0.0,-0.4099999964237213,0.23999999463558197,-0.001090830541215837,0.0,1.0,-0.0,-0.0,1726473752.3278768,0.5659618978968443,-0.6926132818046573,-2.420644367198965
141.1228485107422,0.0,0.0,-0.4099999964237213,0.23999999463558197,-0.001090830541215837,0.0,1.0,-0.0,-0.0,1726473752.3379433,0.5659713086275004,-0.692614638700633,-2.4206602077925345
141.1228485107422,0.0,0.0,-0.4099999964237213,0.23999999463558197,-0.001090830541215837,0.0,1.0,-0.0,-0.0,1726473752.3476198,0.5659680749218959,-0.6926157850363667,-2.420849839502639
141.1228485107422,0.0,0.0,-0.4099999964237213,0.23999999463558197,-0.001090830541215837,0.0,1.0,-0.0,-0.0,1726473752.3574111,0.5659714192177787,-0.6926004922557316,-2.4208949019586736
141.1228485107422,0.0,0.0,-0.4099999964237213,0.23999999463558197,-0.001090830541215837,0.0,1.0,-0.0,-0.0,1726473752.367706,0.5659766515385022,-0.6925987437863921,-2.4208416039140483
141.1228485107422,0.0,0.0,-0.4099999964237213,0.23999999463558197,-0.001090830541215837,0.0,1.0,-0.0,-0.0,1726473752.3774655,0.5659568925068312,-0.6926081377164222,-2.4207654285106948
141.1228485107422,0.0,0.0,-0.4099999964237213,0.23999999463558197,-0.001090830541215837,0.0,1.0,-0.0,-0.0,1726473752.3876114,0.5659693455800479,-0.6926015175635368,-2.420783030857865
141.1228485107422,0.0,0.0,-0.4099999964237213,0.23999999463558197,-0.001090830541215837,0.0,1.0,-0.0,-0.0,1726473752.3977075,0.5659605761918027,-0.6925976390946804,-2.4206342099382594
141.1228485107422,0.0,0.0,-0.4099999964237213,0.23999999463558197,-0.001090830541215837,0.0,1.0,-0.0,-0.0,1726473752.407904,0.5659678893550117,-0.6926069344098914,-2.4206928932347576
141.2193145751953,0.0,0.0,-0.4699999988079071,0.20999999344348907,0.001090830541215837,0.0,1.0,-0.0,-0.0,1726473752.4177523,0.5659792060628134,-0.6926074602150608,-2.4207346042253923
141.2193145751953,0.0,0.0,-0.4699999988079071,0.20999999344348907,0.001090830541215837,0.0,1.0,-0.0,-0.0,1726473752.427899,0.5659802622219878,-0.6926113798323985,-2.4206742259439937
141.2193145751953,0.0,0.0,-0.4699999988079071,0.20999999344348907,0.001090830541215837,0.0,1.0,-0.0,-0.0,1726473752.4377217,0.5659733944369442,-0.6926099728713793,-2.4207339442739952
141.2193145751953,0.0,0.0,-0.4699999988079071,0.20999999344348907,0.001090830541215837,0.0,1.0,-0.0,-0.0,1726473752.4472072,0.5659745154560658,-0.6926031469551791,-2.4205462614430395
141.2193145751953,0.0,0.0,-0.4699999988079071,0.20999999344348907,0.001090830541215837,0.0,1.0,-0.0,-0.0,1726473752.457539,0.5659555732411725,-0.6925908213522363,-2.420758550497624
141.2193145751953,0.0,0.0,-0.4699999988079071,0.20999999344348907,0.001090830541215837,0.0,1.0,-0.0,-0.0,1726473752.4675288,0.5659697343856123,-0.6925934564641254,-2.4206477273790687
141.2193145751953,0.0,0.0,-0.4699999988079071,0.20999999344348907,0.001090830541215837,0.0,1.0,-0.0,-0.0,1726473752.4775295,0.5659839324976272,-0.6925984683598747,-2.4207005220365154
141.2193145751953,0.0,0.0,-0.4699999988079071,0.20999999344348907,0.001090830541215837,0.0,1.0,-0.0,-0.0,1726473752.4874537,0.565988347975389,-0.6926008786180514,-2.4206060684609447
141.2193145751953,0.0,0.0,-0.4699999988079071,0.20999999344348907,0.001090830541215837,0.0,1.0,-0.0,-0.0,1726473752.4974818,0.5659863002542076,-0.6926054989241185,-2.420668370485738
141.2193145751953,0.0,0.0,-0.4699999988079071,0.20999999344348907,0.001090830541215837,0.0,1.0,-0.0,-0.0,1726473752.5074852,0.5659818617179523,-0.6926206545374789,-2.420738213614732
141.31988525390625,0.0,0.0,-0.4300000071525574,0.20000000298023224,0.001090830541215837,0.0,1.0,-0.0,-0.0,1726473752.5176847,0.5659730034498317,-0.692607700464453,-2.4208251829886187
141.31988525390625,0.0,0.0,-0.4300000071525574,0.20000000298023224,0.001090830541215837,0.0,1.0,-0.0,-0.0,1726473752.5278416,0.565974951166397,-0.6926151785664054,-2.4207469499063143
141.31988525390625,0.0,0.0,-0.4300000071525574,0.20000000298023224,0.001090830541215837,0.0,1.0,-0.0,-0.0,1726473752.5381033,0.5659702439083987,-0.6925957630562515,-2.420680865591738
141.31988525390625,0.0,0.0,-0.4300000071525574,0.20000000298023224,0.001090830541215837,0.0,1.0,-0.0,-0.0,1726473752.5480072,0.5659772058358823,-0.6926048156299596,-2.420744208452162
141.31988525390625,0.0,0.0,-0.4300000071525574,0.20000000298023224,0.001090830541215837,0.0,1.0,-0.0,-0.0,1726473752.5580118,0.5659802881216904,-0.6926108289839991,-2.420749137287003
141.31988525390625,0.0,0.0,-0.4300000071525574,0.20000000298023224,0.001090830541215837,0.0,1.0,-0.0,-0.0,1726473752.5676918,0.5659850273888464,-0.692618652297875,-2.4207042231290608
141.31988525390625,0.0,0.0,-0.4300000071525574,0.20000000298023224,0.001090830541215837,0.0,1.0,-0.0,-0.0,1726473752.577486,0.565972421731177,-0.6926121872832989,-2.420656083135325
141.31988525390625,0.0,0.0,-0.4300000071525574,0.20000000298023224,0.001090830541215837,0.0,1.0,-0.0,-0.0,1726473752.5874383,0.5659789932133652,-0.6926144654645712,-2.420637399281507
141.31988525390625,0.0,0.0,-0.4300000071525574,0.20000000298023224,0.001090830541215837,0.0,1.0,-0.0,-0.0,1726473752.5975385,0.5659725493470606,-0.6926117469923398,-2.420766749235958
141.31988525390625,0.0,0.0,-0.4300000071525574,0.20000000298023224,0.001090830541215837,0.0,1.0,-0.0,-0.0,1726473752.6075246,0.5659649652226065,-0.692603666737268,-2.420721971469878
141.4199676513672,0.0,0.0,-0.4000000059604645,0.23999999463558197,-0.0032724919728934765,0.0,1.0,-0.0,-0.0,1726473752.6174173,0.5659663995968399,-0.6926073568286027,-2.420749314875772
141.4199676513672,0.0,0.0,-0.4000000059604645,0.23999999463558197,-0.0032724919728934765,0.0,1.0,-0.0,-0.0,1726473752.6274369,0.5659773406188484,-0.6926206929887677,-2.4206779535819107
141.4199676513672,0.0,0.0,-0.4000000059604645,0.23999999463558197,-0.0032724919728934765,0.0,1.0,-0.0,-0.0,1726473752.637629,0.5659743585965975,-0.6926199980114716,-2.4206267368749175
141.4199676513672,0.0,0.0,-0.4000000059604645,0.23999999463558197,-0.0032724919728934765,0.0,1.0,-0.0,-0.0,1726473752.6477635,0.565976080474662,-0.6926254662131063,-2.4207186886855463
141.4199676513672,0.0,0.0,-0.4000000059604645,0.23999999463558197,-0.0032724919728934765,0.0,1.0,-0.0,-0.0,1726473752.6576996,0.565976170230604,-0.6926208900498111,-2.4209074017552705
141.4199676513672,0.0,0.0,-0.4000000059604645,0.23999999463558197,-0.0032724919728934765,0.0,1.0,-0.0,-0.0,1726473752.667637,0.5659625336584096,-0.6926187305000426,-2.42059854360854
141.4199676513672,0.0,0.0,-0.4000000059604645,0.23999999463558197,-0.0032724919728934765,0.0,1.0,-0.0,-0.0,1726473752.677477,0.5659689792727531,-0.6926136871948925,-2.420763821447312
141.4199676513672,0.0,0.0,-0.4000000059604645,0.23999999463558197,-0.0032724919728934765,0.0,1.0,-0.0,-0.0,1726473752.6877162,0.5659737061687814,-0.6926127018722704,-2.4207747404445996
141.4199676513672,0.0,0.0,-0.4000000059604645,0.23999999463558197,-0.0032724919728934765,0.0,1.0,-0.0,-0.0,1726473752.697244,0.5659771751022588,-0.6926145210163166,-2.4205942319911693
141.4199676513672,0.0,0.0,-0.4000000059604645,0.23999999463558197,-0.0032724919728934765,0.0,1.0,-0.0,-0.0,1726473752.707631,0.5659719150001866,-0.6926146567367438,-2.420803690770977
141.51834106445312,0.0,0.0,-0.4000000059604645,0.23000000417232513,0.0,0.0,1.0,-0.0,-0.0,1726473752.7175438,0.565966022466434,-0.6926229959229887,-2.420553821617286
141.51834106445312,0.0,0.0,-0.4000000059604645,0.23000000417232513,0.0,0.0,1.0,-0.0,-0.0,1726473752.727494,0.565963860061526,-0.692615242867145,-2.4208217840391804
141.51834106445312,0.0,0.0,-0.4000000059604645,0.23000000417232513,0.0,0.0,1.0,-0.0,-0.0,1726473752.7376173,0.5659700999329806,-0.6926172299620228,-2.420845501914499
141.51834106445312,0.0,0.0,-0.4000000059604645,0.23000000417232513,0.0,0.0,1.0,-0.0,-0.0,1726473752.7478065,0.5659680431212286,-0.6926167271153532,-2.420797941465503
141.51834106445312,0.0,0.0,-0.4000000059604645,0.23000000417232513,0.0,0.0,1.0,-0.0,-0.0,1726473752.7575648,0.565974556673044,-0.6926113206617777,-2.4208144054398035
141.51834106445312,0.0,0.0,-0.4000000059604645,0.23000000417232513,0.0,0.0,1.0,-0.0,-0.0,1726473752.7676392,0.5659822899838873,-0.6926139598189914,-2.4206898015501395
141.51834106445312,0.0,0.0,-0.4000000059604645,0.23000000417232513,0.0,0.0,1.0,-0.0,-0.0,1726473752.7776148,0.5659816402559146,-0.6926226164544688,-2.420635141193987
141.51834106445312,0.0,0.0,-0.4000000059604645,0.23000000417232513,0.0,0.0,1.0,-0.0,-0.0,1726473752.7875624,0.5659790473253707,-0.6926070291521682,-2.420884746203801
141.51834106445312,0.0,0.0,-0.4000000059604645,0.23000000417232513,0.0,0.0,1.0,-0.0,-0.0,1726473752.79759,0.5659696729832736,-0.6926089766227834,-2.4206495930797383
141.51834106445312,0.0,0.0,-0.4000000059604645,0.23000000417232513,0.0,0.0,1.0,-0.0,-0.0,1726473752.8076298,0.565980223112259,-0.6926125341167267,-2.4206929642104145
141.62168884277344,0.0,0.0,-0.46000000834465027,0.20999999344348907,-0.001090830541215837,0.0,1.0,-0.0,-0.0,1726473752.817638,0.5659724208277801,-0.6926079491658839,-2.420848823792664
141.62168884277344,0.0,0.0,-0.46000000834465027,0.20999999344348907,-0.001090830541215837,0.0,1.0,-0.0,-0.0,1726473752.827677,0.5659749279691191,-0.6926030072504976,-2.420629231814751
141.62168884277344,0.0,0.0,-0.46000000834465027,0.20999999344348907,-0.001090830541215837,0.0,1.0,-0.0,-0.0,1726473752.8376632,0.565981165052195,-0.6926033547664325,-2.420696421454353
141.62168884277344,0.0,0.0,-0.46000000834465027,0.20999999344348907,-0.001090830541215837,0.0,1.0,-0.0,-0.0,1726473752.8475783,0.5659891412508721,-0.6926126047674314,-2.420717012938597
141.62168884277344,0.0,0.0,-0.46000000834465027,0.20999999344348907,-0.001090830541215837,0.0,1.0,-0.0,-0.0,1726473752.8573828,0.5659747077325874,-0.6926011817702217,-2.4206034493407222
141.62168884277344,0.0,0.0,-0.46000000834465027,0.20999999344348907,-0.001090830541215837,0.0,1.0,-0.0,-0.0,1726473752.8674874,0.5659816628941139,-0.6926031113948983,-2.4206022802174094
141.62168884277344,0.0,0.0,-0.46000000834465027,0.20999999344348907,-0.001090830541215837,0.0,1.0,-0.0,-0.0,1726473752.8774204,0.5659663241627392,-0.6926028553777409,-2.4207160944509076
141.62168884277344,0.0,0.0,-0.46000000834465027,0.20999999344348907,-0.001090830541215837,0.0,1.0,-0.0,-0.0,1726473752.887518,0.5659711235735487,-0.6926160149009989,-2.420663083592503
141.62168884277344,0.0,0.0,-0.46000000834465027,0.20999999344348907,-0.001090830541215837,0.0,1.0,-0.0,-0.0,1726473752.8975592,0.5659773905270105,-0.6926020612809568,-2.4208534152179046
141.62168884277344,0.0,0.0,-0.46000000834465027,0.20999999344348907,-0.001090830541215837,0.0,1.0,-0.0,-0.0,1726473752.907644,0.5659722267996634,-0.6926045901065768,-2.420717513918015
141.7201385498047,0.0,0.0,-0.38999998569488525,0.23999999463558197,0.001090830541215837,0.0,1.0,-0.0,-0.0,1726473752.9178069,0.565964323011692,-0.692599265813675,-2.4206922761972116
141.7201385498047,0.0,0.0,-0.38999998569488525,0.23999999463558197,0.001090830541215837,0.0,1.0,-0.0,-0.0,1726473752.9274635,0.5659790659712968,-0.6926060082473053,-2.420602700127607
141.7201385498047,0.0,0.0,-0.38999998569488525,0.23999999463558197,0.001090830541215837,0.0,1.0,-0.0,-0.0,1726473752.937714,0.5659797588940844,-0.6926054224894275,-2.420636507931782
141.7201385498047,0.0,0.0,-0.38999998569488525,0.23999999463558197,0.001090830541215837,0.0,1.0,-0.0,-0.0,1726473752.9474485,0.5659788434383364,-0.6925965501369065,-2.4206244178704033
141.7201385498047,0.0,0.0,-0.38999998569488525,0.23999999463558197,0.001090830541215837,0.0,1.0,-0.0,-0.0,1726473752.9572809,0.5659737847379995,-0.6926005728178091,-2.4206870791088027
141.7201385498047,0.0,0.0,-0.38999998569488525,0.23999999463558197,0.001090830541215837,0.0,1.0,-0.0,-0.0,1726473752.9675152,0.5659650279531242,-0.6926031025038466,-2.4205393613950728
141.7201385498047,0.0,0.0,-0.38999998569488525,0.23999999463558197,0.001090830541215837,0.0,1.0,-0.0,-0.0,1726473752.9775858,0.5659681759011578,-0.6926117805022193,-2.4208371685502748
141.7201385498047,0.0,0.0,-0.38999998569488525,0.23999999463558197,0.001090830541215837,0.0,1.0,-0.0,-0.0,1726473752.987538,0.5659692327411892,-0.6926090002171945,-2.4207843184021836
141.7201385498047,0.0,0.0,-0.38999998569488525,0.23999999463558197,0.001090830541215837,0.0,1.0,-0.0,-0.0,1726473752.9976165,0.5659700484021005,-0.6926069025165957,-2.4207866625379597
141.7201385498047,0.0,0.0,-0.38999998569488525,0.23999999463558197,0.001090830541215837,0.0,1.0,-0.0,-0.0,1726473753.0075336,0.5659694893970251,-0.6926013535038551,-2.420690857844644
141.81997680664062,0.0,0.0,-0.4399999976158142,0.23000000417232513,0.0,0.0,1.0,-0.0,-0.0,1726473753.0176182,0.5659728073468593,-0.692604996278698,-2.420677430984198
141.81997680664062,0.0,0.0,-0.4399999976158142,0.23000000417232513,0.0,0.0,1.0,-0.0,-0.0,1726473753.0277736,0.565972473442596,-0.6926031883309276,-2.4208079052250477
141.81997680664062,0.0,0.0,-0.4399999976158142,0.23000000417232513,0.0,0.0,1.0,-0.0,-0.0,1726473753.037817,0.5659750847368169,-0.6926023884896297,-2.4206211129597044
141.81997680664062,0.0,0.0,-0.4399999976158142,0.23000000417232513,0.0,0.0,1.0,-0.0,-0.0,1726473753.0475357,0.5659712873833299,-0.6926137814237597,-2.420730419861804
141.81997680664062,0.0,0.0,-0.4399999976158142,0.23000000417232513,0.0,0.0,1.0,-0.0,-0.0,1726473753.0572186,0.5659665019611102,-0.6926206958357376,-2.4208122200105224
141.81997680664062,0.0,0.0,-0.4399999976158142,0.23000000417232513,0.0,0.0,1.0,-0.0,-0.0,1726473753.0675743,0.5659776850075527,-0.6926055312501694,-2.420648343326831
141.81997680664062,0.0,0.0,-0.4399999976158142,0.23000000417232513,0.0,0.0,1.0,-0.0,-0.0,1726473753.0775216,0.5659778495214637,-0.6926083323973109,-2.420600582446475
141.81997680664062,0.0,0.0,-0.4399999976158142,0.23000000417232513,0.0,0.0,1.0,-0.0,-0.0,1726473753.0874808,0.5659696026987847,-0.6926129134101574,-2.420767071910576
141.81997680664062,0.0,0.0,-0.4399999976158142,0.23000000417232513,0.0,0.0,1.0,-0.0,-0.0,1726473753.0974529,0.565973168582442,-0.6926107445087684,-2.4206244124463305
141.81997680664062,0.0,0.0,-0.4399999976158142,0.23000000417232513,0.0,0.0,1.0,-0.0,-0.0,1726473753.107581,0.5659700158220556,-0.6926060849370267,-2.420716977008121
141.9221954345703,0.0,0.0,-0.36000001430511475,0.25,0.001090830541215837,0.0,1.0,-0.0,-0.0,1726473753.117563,0.565963662553676,-0.6926174312321189,-2.420696149786672
141.9221954345703,0.0,0.0,-0.36000001430511475,0.25,0.001090830541215837,0.0,1.0,-0.0,-0.0,1726473753.1275475,0.5659732250773328,-0.6926070232349963,-2.4207463385651056
141.9221954345703,0.0,0.0,-0.36000001430511475,0.25,0.001090830541215837,0.0,1.0,-0.0,-0.0,1726473753.137739,0.5659797991875308,-0.6926179581472862,-2.420786162826974
141.9221954345703,0.0,0.0,-0.36000001430511475,0.25,0.001090830541215837,0.0,1.0,-0.0,-0.0,1726473753.1475737,0.5659809550979704,-0.6926142413862463,-2.4205510169655686
141.9221954345703,0.0,0.0,-0.36000001430511475,0.25,0.001090830541215837,0.0,1.0,-0.0,-0.0,1726473753.1573973,0.5659747935837587,-0.6926138953932398,-2.420620006991607
141.9221954345703,0.0,0.0,-0.36000001430511475,0.25,0.001090830541215837,0.0,1.0,-0.0,-0.0,1726473753.1674576,0.5659789894267195,-0.6926147228497598,-2.4206595384098377
141.9221954345703,0.0,0.0,-0.36000001430511475,0.25,0.001090830541215837,0.0,1.0,-0.0,-0.0,1726473753.1774185,0.5659661452846967,-0.6926147056703235,-2.420799948063905
141.9221954345703,0.0,0.0,-0.36000001430511475,0.25,0.001090830541215837,0.0,1.0,-0.0,-0.0,1726473753.1873717,0.5659771600113802,-0.6926146959678771,-2.4207476328956807
141.9221954345703,0.0,0.0,-0.36000001430511475,0.25,0.001090830541215837,0.0,1.0,-0.0,-0.0,1726473753.197482,0.5659793880729219,-0.6926194110488271,-2.4209073786240616
141.9221954345703,0.0,0.0,-0.36000001430511475,0.25,0.001090830541215837,0.0,1.0,-0.0,-0.0,1726473753.20764,0.5659820579952899,-0.6926192526266441,-2.4206360166245804
142.0213623046875,0.0,0.0,-0.44999998807907104,0.20000000298023224,0.0,0.0,1.0,-0.0,-0.0,1726473753.2180512,0.5659806792338755,-0.6926014965195623,-2.4206281562582443
142.0213623046875,0.0,0.0,-0.44999998807907104,0.20000000298023224,0.0,0.0,1.0,-0.0,-0.0,1726473753.2278132,0.5659799974320491,-0.6926162251660215,-2.420717043446546
142.0213623046875,0.0,0.0,-0.44999998807907104,0.20000000298023224,0.0,0.0,1.0,-0.0,-0.0,1726473753.2376869,0.5659753956078661,-0.6926182727393687,-2.4206616401596617
142.0213623046875,0.0,0.0,-0.44999998807907104,0.20000000298023224,0.0,0.0,1.0,-0.0,-0.0,1726473753.248104,0.5659777890842561,-0.6926195997630448,-2.4207288358360075
142.0213623046875,0.0,0.0,-0.44999998807907104,0.20000000298023224,0.0,0.0,1.0,-0.0,-0.0,1726473753.2579794,0.5659606825795168,-0.6926110217192644,-2.420622209600919
142.0213623046875,0.0,0.0,-0.44999998807907104,0.20000000298023224,0.0,0.0,1.0,-0.0,-0.0,1726473753.267533,0.5659708195130887,-0.6926089375503542,-2.420869825081398
142.0213623046875,0.0,0.0,-0.44999998807907104,0.20000000298023224,0.0,0.0,1.0,-0.0,-0.0,1726473753.277703,0.5659792371158292,-0.6926068344330883,-2.4207888059795093
142.0213623046875,0.0,0.0,-0.44999998807907104,0.20000000298023224,0.0,0.0,1.0,-0.0,-0.0,1726473753.2875168,0.5659764551133213,-0.6926240992010281,-2.4205793743892667
142.0213623046875,0.0,0.0,-0.44999998807907104,0.20000000298023224,0.0,0.0,1.0,-0.0,-0.0,1726473753.2975218,0.5659863095427612,-0.6926153163050393,-2.4208058257497704
142.0213623046875,0.0,0.0,-0.44999998807907104,0.20000000298023224,0.0,0.0,1.0,-0.0,-0.0,1726473753.3074346,0.5659857220656437,-0.692604993220246,-2.4208118855238783
142.1173858642578,0.0,0.0,-0.36000001430511475,0.23999999463558197,0.0,0.0,1.0,-0.0,-0.0,1726473753.3176684,0.5659780962670878,-0.6926138549762183,-2.4205797757527483
142.1173858642578,0.0,0.0,-0.36000001430511475,0.23999999463558197,0.0,0.0,1.0,-0.0,-0.0,1726473753.3274953,0.5659785878655733,-0.6926078770768961,-2.4208427021912517
142.1173858642578,0.0,0.0,-0.36000001430511475,0.23999999463558197,0.0,0.0,1.0,-0.0,-0.0,1726473753.3377435,0.5659711585424446,-0.6926159870417934,-2.4206127804152358
142.1173858642578,0.0,0.0,-0.36000001430511475,0.23999999463558197,0.0,0.0,1.0,-0.0,-0.0,1726473753.3471446,0.5659782966100171,-0.6926190913649872,-2.4207735914092527
142.1173858642578,0.0,0.0,-0.36000001430511475,0.23999999463558197,0.0,0.0,1.0,-0.0,-0.0,1726473753.3576746,0.5659690792992357,-0.6926190938801983,-2.4207937566010025
142.1173858642578,0.0,0.0,-0.36000001430511475,0.23999999463558197,0.0,0.0,1.0,-0.0,-0.0,1726473753.3675687,0.5659780640063495,-0.6926157835347653,-2.4208065568692634
142.1173858642578,0.0,0.0,-0.36000001430511475,0.23999999463558197,0.0,0.0,1.0,-0.0,-0.0,1726473753.3775496,0.5659783727378536,-0.6926198268228707,-2.4208165675474453
142.1173858642578,0.0,0.0,-0.36000001430511475,0.23999999463558197,0.0,0.0,1.0,-0.0,-0.0,1726473753.3875146,0.5659846129123598,-0.692610393653096,-2.4206148465250603
142.1173858642578,0.0,0.0,-0.36000001430511475,0.23999999463558197,0.0,0.0,1.0,-0.0,-0.0,1726473753.397928,0.5659703953536493,-0.6926113187960384,-2.4207586174905575
142.1173858642578,0.0,0.0,-0.36000001430511475,0.23999999463558197,0.0,0.0,1.0,-0.0,-0.0,1726473753.407664,0.565977591499837,-0.6926123188870231,-2.4206922338600596
142.21937561035156,0.0,0.0,-0.4099999964237213,0.2199999988079071,-0.002181661082431674,0.0,1.0,-0.0,-0.0,1726473753.417987,0.5659696648510115,-0.6926166603192591,-2.4206394003958533
142.21937561035156,0.0,0.0,-0.4099999964237213,0.2199999988079071,-0.002181661082431674,0.0,1.0,-0.0,-0.0,1726473753.4283633,0.5659593351810072,-0.692610856287852,-2.4207855253915254
142.21937561035156,0.0,0.0,-0.4099999964237213,0.2199999988079071,-0.002181661082431674,0.0,1.0,-0.0,-0.0,1726473753.4381034,0.5659590496163819,-0.6926085547885816,-2.4207464700425168
142.21937561035156,0.0,0.0,-0.4099999964237213,0.2199999988079071,-0.002181661082431674,0.0,1.0,-0.0,-0.0,1726473753.447653,0.5659724007807134,-0.6926191979089786,-2.4209021822299714
142.21937561035156,0.0,0.0,-0.4099999964237213,0.2199999988079071,-0.002181661082431674,0.0,1.0,-0.0,-0.0,1726473753.4577725,0.5659726718627655,-0.692610700839384,-2.4207936866166695
142.21937561035156,0.0,0.0,-0.4099999964237213,0.2199999988079071,-0.002181661082431674,0.0,1.0,-0.0,-0.0,1726473753.4676728,0.5659772175324219,-0.6926159117459888,-2.4205172505119283
142.21937561035156,0.0,0.0,-0.4099999964237213,0.2199999988079071,-0.002181661082431674,0.0,1.0,-0.0,-0.0,1726473753.4776282,0.5659669461331911,-0.6926104400445532,-2.4207429598795933
142.21937561035156,0.0,0.0,-0.4099999964237213,0.2199999988079071,-0.002181661082431674,0.0,1.0,-0.0,-0.0,1726473753.4875796,0.5659818047219274,-0.6926085362183734,-2.4207360955060775
142.21937561035156,0.0,0.0,-0.4099999964237213,0.2199999988079071,-0.002181661082431674,0.0,1.0,-0.0,-0.0,1726473753.4975736,0.5659720332580606,-0.692612076680158,-2.4207849101478436
142.21937561035156,0.0,0.0,-0.4099999964237213,0.2199999988079071,-0.002181661082431674,0.0,1.0,-0.0,-0.0,1726473753.5074246,0.5659715007276691,-0.6926055607905321,-2.420652275914948
142.31971740722656,0.0,0.0,-0.36000001430511475,0.23000000417232513,0.001090830541215837,0.0,1.0,0.01031494140625,-0.0,1726473753.517715,0.5659720096481528,-0.6925986876659572,-2.420671482184951
142.31971740722656,0.0,0.0,-0.36000001430511475,0.23000000417232513,0.001090830541215837,0.0,1.0,0.01031494140625,-0.0,1726473753.5277123,0.5659721085414292,-0.6926085026253496,-2.4207177994724014
142.31971740722656,0.0,0.0,-0.36000001430511475,0.23000000417232513,0.001090830541215837,0.0,1.0,0.01031494140625,-0.0,1726473753.5378172,0.5659858664847403,-0.6926114980639285,-2.420633698055245
142.31971740722656,0.0,0.0,-0.36000001430511475,0.23000000417232513,0.001090830541215837,0.0,1.0,0.01031494140625,-0.0,1726473753.5475328,0.5659800006448621,-0.6926175128437647,-2.420802436304825
142.31971740722656,0.0,0.0,-0.36000001430511475,0.23000000417232513,0.001090830541215837,0.0,1.0,0.01031494140625,-0.0,1726473753.5575085,0.5659701384295156,-0.6926032091184982,-2.4208001596763267
142.31971740722656,0.0,0.0,-0.36000001430511475,0.23000000417232513,0.001090830541215837,0.0,1.0,0.01031494140625,-0.0,1726473753.5675435,0.5659728969892526,-0.6925977880368402,-2.4207278283333706
142.31971740722656,0.0,0.0,-0.36000001430511475,0.23000000417232513,0.001090830541215837,0.0,1.0,0.01031494140625,-0.0,1726473753.5774884,0.5659630451159099,-0.6925986020878884,-2.4208477226453295
142.31971740722656,0.0,0.0,-0.36000001430511475,0.23000000417232513,0.001090830541215837,0.0,1.0,0.01031494140625,-0.0,1726473753.5874486,0.5659811976642056,-0.6926112214828632,-2.4208067450956627
142.31971740722656,0.0,0.0,-0.36000001430511475,0.23000000417232513,0.001090830541215837,0.0,1.0,0.01031494140625,-0.0,1726473753.5975134,0.5659776085886932,-0.6926009096697199,-2.420743938021744
142.31971740722656,0.0,0.0,-0.36000001430511475,0.23000000417232513,0.001090830541215837,0.0,1.0,0.01031494140625,-0.0,1726473753.6075068,0.565968964663587,-0.6926149528225855,-2.4207813670013083
142.42062377929688,0.0,0.0,-0.44999998807907104,0.1899999976158142,-0.001090830541215837,0.0,1.0,0.05157470703125,-0.0,1726473753.6180773,0.5659768076736231,-0.6926140904857395,-2.4207839503128827
142.42062377929688,0.0,0.0,-0.44999998807907104,0.1899999976158142,-0.001090830541215837,0.0,1.0,0.05157470703125,-0.0,1726473753.6284475,0.5659692510586549,-0.6926208158743634,-2.4207780420856144
142.42062377929688,0.0,0.0,-0.44999998807907104,0.1899999976158142,-0.001090830541215837,0.0,1.0,0.05157470703125,-0.0,1726473753.6381576,0.5659668300657534,-0.6926114962863996,-2.4206829847862674
142.42062377929688,0.0,0.0,-0.44999998807907104,0.1899999976158142,-0.001090830541215837,0.0,1.0,0.05157470703125,-0.0,1726473753.6481724,0.5659725988357767,-0.692605464430491,-2.420680150410664
142.42062377929688,0.0,0.0,-0.44999998807907104,0.1899999976158142,-0.001090830541215837,0.0,1.0,0.05157470703125,-0.0,1726473753.6579006,0.5659744866605948,-0.6926137316824033,-2.420642060654293
142.42062377929688,0.0,0.0,-0.44999998807907104,0.1899999976158142,-0.001090830541215837,0.0,1.0,0.05157470703125,-0.0,1726473753.6677384,0.565974971254208,-0.6926118521477577,-2.4207846251245684
142.42062377929688,0.0,0.0,-0.44999998807907104,0.1899999976158142,-0.001090830541215837,0.0,1.0,0.05157470703125,-0.0,1726473753.6776366,0.565972715839974,-0.6926204346889594,-2.4208105146544865
142.42062377929688,0.0,0.0,-0.44999998807907104,0.1899999976158142,-0.001090830541215837,0.0,1.0,0.05157470703125,-0.0,1726473753.6876235,0.5659702910962934,-0.6926128805321575,-2.420667581149906
142.42062377929688,0.0,0.0,-0.44999998807907104,0.1899999976158142,-0.001090830541215837,0.0,1.0,0.05157470703125,-0.0,1726473753.6976478,0.5659635746771609,-0.6926235687282402,-2.420848995858057
142.42062377929688,0.0,0.0,-0.44999998807907104,0.1899999976158142,-0.001090830541215837,0.0,1.0,0.05157470703125,-0.0,1726473753.7077374,0.5659707194074619,-0.6926241834637146,-2.4206975365279475
142.52093505859375,0.0,0.0,-0.4000000059604645,0.23999999463558197,-0.001090830541215837,0.0,1.0,0.082489013671875,-0.0,1726473753.7176814,0.5659739142590474,-0.6926266518438653,-2.420617374146374
142.52093505859375,0.0,0.0,-0.4000000059604645,0.23999999463558197,-0.001090830541215837,0.0,1.0,0.082489013671875,-0.0,1726473753.727515,0.5659667465539431,-0.6926035499321255,-2.420657817550874
142.52093505859375,0.0,0.0,-0.4000000059604645,0.23999999463558197,-0.001090830541215837,0.0,1.0,0.082489013671875,-0.0,1726473753.7380133,0.5659833742097948,-0.692617584135418,-2.4208486269002054
142.52093505859375,0.0,0.0,-0.4000000059604645,0.23999999463558197,-0.001090830541215837,0.0,1.0,0.082489013671875,-0.0,1726473753.7480087,0.5659667280814711,-0.6926190422549314,-2.4205465156060706
142.52093505859375,0.0,0.0,-0.4000000059604645,0.23999999463558197,-0.001090830541215837,0.0,1.0,0.082489013671875,-0.0,1726473753.757271,0.5659627820784442,-0.6926227116843001,-2.4207533720433863
142.52093505859375,0.0,0.0,-0.4000000059604645,0.23999999463558197,-0.001090830541215837,0.0,1.0,0.082489013671875,-0.0,1726473753.767677,0.5659779336160923,-0.6926146799381944,-2.4207465673270687
142.52093505859375,0.0,0.0,-0.4000000059604645,0.23999999463558197,-0.001090830541215837,0.0,1.0,0.082489013671875,-0.0,1726473753.7775402,0.5659763447792612,-0.6926180865898431,-2.4207322689944606
142.52093505859375,0.0,0.0,-0.4000000059604645,0.23999999463558197,-0.001090830541215837,0.0,1.0,0.082489013671875,-0.0,1726473753.7874923,0.5659774364024175,-0.6926227661229614,-2.4206456088906956
142.52093505859375,0.0,0.0,-0.4000000059604645,0.23999999463558197,-0.001090830541215837,0.0,1.0,0.082489013671875,-0.0,1726473753.7975185,0.5659841560643435,-0.6926133150679307,-2.420677992542735
142.52093505859375,0.0,0.0,-0.4000000059604645,0.23999999463558197,-0.001090830541215837,0.0,1.0,0.082489013671875,-0.0,1726473753.807704,0.5659811672787529,-0.6926323163520732,-2.4206583382642064
142.61767578125,0.0,0.0,-0.3700000047683716,0.23999999463558197,0.0,0.0,1.0,0.103118896484375,-0.0,1726473753.8177493,0.5659709371168808,-0.6926307244175076,-2.4206882651593746
142.61767578125,0.0,0.0,-0.3700000047683716,0.23999999463558197,0.0,0.0,1.0,0.103118896484375,-0.0,1726473753.8283637,0.5659762254483567,-0.6926148772854598,-2.4206022632944766
142.61767578125,0.0,0.0,-0.3700000047683716,0.23999999463558197,0.0,0.0,1.0,0.103118896484375,-0.0,1726473753.8378851,0.5659735555422721,-0.6926195171024292,-2.420774306339792
142.61767578125,0.0,0.0,-0.3700000047683716,0.23999999463558197,0.0,0.0,1.0,0.103118896484375,-0.0,1726473753.847862,0.5659756224543833,-0.6926087340858339,-2.420752491038914
142.61767578125,0.0,0.0,-0.3700000047683716,0.23999999463558197,0.0,0.0,1.0,0.103118896484375,-0.0,1726473753.8574295,0.5659763619718675,-0.6926153503439301,-2.420858672285188
142.61767578125,0.0,0.0,-0.3700000047683716,0.23999999463558197,0.0,0.0,1.0,0.103118896484375,-0.0,1726473753.867548,0.565980852287112,-0.6926206964862018,-2.420734391623199
142.61767578125,0.0,0.0,-0.3700000047683716,0.23999999463558197,0.0,0.0,1.0,0.103118896484375,-0.0,1726473753.8775756,0.5659675422638055,-0.6926140643710221,-2.4207659074040917
142.61767578125,0.0,0.0,-0.3700000047683716,0.23999999463558197,0.0,0.0,1.0,0.103118896484375,-0.0,1726473753.8876257,0.5659643800054348,-0.6926203620168674,-2.4206980842191204
142.61767578125,0.0,0.0,-0.3700000047683716,0.23999999463558197,0.0,0.0,1.0,0.103118896484375,-0.0,1726473753.8975446,0.565979400298712,-0.6926140236683029,-2.4206997792695724
142.61767578125,0.0,0.0,-0.3700000047683716,0.23999999463558197,0.0,0.0,1.0,0.103118896484375,-0.0,1726473753.90788,0.5659739984692741,-0.6926175170355052,-2.420709750871065
142.718505859375,0.0,0.0,-0.41999998688697815,0.20000000298023224,-0.002181661082431674,0.0,1.0,0.12371826171875,-0.0,1726473753.9182181,0.565971140952356,-0.6926190180311639,-2.420813012974711
142.718505859375,0.0,0.0,-0.41999998688697815,0.20000000298023224,-0.002181661082431674,0.0,1.0,0.12371826171875,-0.0,1726473753.9278626,0.5659712324941368,-0.6926068451898553,-2.420534095906555
142.718505859375,0.0,0.0,-0.41999998688697815,0.20000000298023224,-0.002181661082431674,0.0,1.0,0.12371826171875,-0.0,1726473753.9382062,0.5659748472050247,-0.6926119589808976,-2.4207523768922306
142.718505859375,0.0,0.0,-0.41999998688697815,0.20000000298023224,-0.002181661082431674,0.0,1.0,0.12371826171875,-0.0,1726473753.9471285,0.565973300565313,-0.6926070039342971,-2.4207685681543745
142.718505859375,0.0,0.0,-0.41999998688697815,0.20000000298023224,-0.002181661082431674,0.0,1.0,0.12371826171875,-0.0,1726473753.95788,0.5659807288198391,-0.692605499667348,-2.4204133976486255
142.718505859375,0.0,0.0,-0.41999998688697815,0.20000000298023224,-0.002181661082431674,0.0,1.0,0.12371826171875,-0.0,1726473753.967523,0.5659736660120777,-0.6926083689457274,-2.420667320294298
142.718505859375,0.0,0.0,-0.41999998688697815,0.20000000298023224,-0.002181661082431674,0.0,1.0,0.12371826171875,-0.0,1726473753.9774702,0.5659857665304622,-0.69262551411943,-2.420666891083943
142.718505859375,0.0,0.0,-0.41999998688697815,0.20000000298023224,-0.002181661082431674,0.0,1.0,0.12371826171875,-0.0,1726473753.9874513,0.5659817982131838,-0.6926150452583363,-2.4206401693579624
142.718505859375,0.0,0.0,-0.41999998688697815,0.20000000298023224,-0.002181661082431674,0.0,1.0,0.12371826171875,-0.0,1726473753.9978595,0.5659651029432069,-0.6926125186344683,-2.4206420937072726
142.718505859375,0.0,0.0,-0.41999998688697815,0.20000000298023224,-0.002181661082431674,0.0,1.0,0.12371826171875,-0.0,1726473754.0075912,0.5659752834397663,-0.6926081604985007,-2.4205997171555804
142.8178253173828,0.0,0.0,-0.4300000071525574,0.2199999988079071,-0.002181661082431674,0.0,1.0,0.14434814453125,-0.0,1726473754.017662,0.5659666944805267,-0.692610579287295,-2.4207899029379876
142.8178253173828,0.0,0.0,-0.4300000071525574,0.2199999988079071,-0.002181661082431674,0.0,1.0,0.14434814453125,-0.0,1726473754.028081,0.5659525676114947,-0.6926019813367117,-2.420842941548645
142.8178253173828,0.0,0.0,-0.4300000071525574,0.2199999988079071,-0.002181661082431674,0.0,1.0,0.14434814453125,-0.0,1726473754.0377145,0.5659552568054137,-0.6926016317221816,-2.4208441834923455
142.8178253173828,0.0,0.0,-0.4300000071525574,0.2199999988079071,-0.002181661082431674,0.0,1.0,0.14434814453125,-0.0,1726473754.0472193,0.5659668138987239,-0.6925947181360786,-2.4206917597842548
142.8178253173828,0.0,0.0,-0.4300000071525574,0.2199999988079071,-0.002181661082431674,0.0,1.0,0.14434814453125,-0.0,1726473754.0573661,0.5659720097459353,-0.6926119226442772,-2.420674487803056
142.8178253173828,0.0,0.0,-0.4300000071525574,0.2199999988079071,-0.002181661082431674,0.0,1.0,0.14434814453125,-0.0,1726473754.0675397,0.5659919441056608,-0.6926166863823459,-2.420671917643534
142.8178253173828,0.0,0.0,-0.4300000071525574,0.2199999988079071,-0.002181661082431674,0.0,1.0,0.14434814453125,-0.0,1726473754.0774758,0.5659828620270703,-0.6926158577115011,-2.4206615972592327
142.8178253173828,0.0,0.0,-0.4300000071525574,0.2199999988079071,-0.002181661082431674,0.0,1.0,0.14434814453125,-0.0,1726473754.087554,0.5659809765589205,-0.6926193012676825,-2.4207963972915225
142.8178253173828,0.0,0.0,-0.4300000071525574,0.2199999988079071,-0.002181661082431674,0.0,1.0,0.14434814453125,-0.0,1726473754.0980568,0.5659671161687787,-0.6926089415059979,-2.4207334941946597
142.8178253173828,0.0,0.0,-0.4300000071525574,0.2199999988079071,-0.002181661082431674,0.0,1.0,0.14434814453125,-0.0,1726473754.1078548,0.5659599073106822,-0.6926092478690541,-2.42078553027497
142.9181365966797,0.0,0.0,-0.3700000047683716,0.25,0.0,0.0,1.0,0.16497802734375,-0.0,1726473754.1181366,0.5659585296323277,-0.6926046187854368,-2.4206832041099324
142.9181365966797,0.0,0.0,-0.3700000047683716,0.25,0.0,0.0,1.0,0.16497802734375,-0.0,1726473754.1278718,0.5659682264818213,-0.692611926112673,-2.4206783975575306
142.9181365966797,0.0,0.0,-0.3700000047683716,0.25,0.0,0.0,1.0,0.16497802734375,-0.0,1726473754.137846,0.5659718206154375,-0.6925967506050905,-2.4207793779576376
142.9181365966797,0.0,0.0,-0.3700000047683716,0.25,0.0,0.0,1.0,0.16497802734375,-0.0,1726473754.1480598,0.5659848481946054,-0.6926190689176543,-2.4206422259609384
142.9181365966797,0.0,0.0,-0.3700000047683716,0.25,0.0,0.0,1.0,0.16497802734375,-0.0,1726473754.1576545,0.5659809342022126,-0.6926237780860242,-2.420727571408202
142.9181365966797,0.0,0.0,-0.3700000047683716,0.25,0.0,0.0,1.0,0.16497802734375,-0.0,1726473754.167347,0.5659772097798077,-0.6926156642374274,-2.4207516676205003
142.9181365966797,0.0,0.0,-0.3700000047683716,0.25,0.0,0.0,1.0,0.16497802734375,-0.0,1726473754.177404,0.5659748801919139,-0.6926145492716297,-2.4207982094742695
142.9181365966797,0.0,0.0,-0.3700000047683716,0.25,0.0,0.0,1.0,0.16497802734375,-0.0,1726473754.187492,0.5659668567995934,-0.6926098734691846,-2.4206654968713925
142.9181365966797,0.0,0.0,-0.3700000047683716,0.25,0.0,0.0,1.0,0.16497802734375,-0.0,1726473754.197605,0.5659634675512275,-0.6926122257910546,-2.4206206531680037
142.9181365966797,0.0,0.0,-0.3700000047683716,0.25,0.0,0.0,1.0,0.16497802734375,-0.0,1726473754.2075272,0.5659702277780793,-0.6926081489621295,-2.4206284958544213
143.0207061767578,0.0,0.0,-0.4399999976158142,0.23000000417232513,-0.0032724919728934765,0.0,1.0,0.175262451171875,-0.0,1726473754.2176414,0.5659756380664974,-0.6926181834810775,-2.4208369942922268
143.0207061767578,0.0,0.0,-0.4399999976158142,0.23000000417232513,-0.0032724919728934765,0.0,1.0,0.175262451171875,-0.0,1726473754.2276556,0.5659810455646229,-0.6926264412859685,-2.4208183479282956
143.0207061767578,0.0,0.0,-0.4399999976158142,0.23000000417232513,-0.0032724919728934765,0.0,1.0,0.175262451171875,-0.0,1726473754.2378998,0.5659747525812164,-0.6926283694610224,-2.420792242592778
143.0207061767578,0.0,0.0,-0.4399999976158142,0.23000000417232513,-0.0032724919728934765,0.0,1.0,0.175262451171875,-0.0,1726473754.247845,0.5659891276500018,-0.6926183603960532,-2.420662512310764
143.0207061767578,0.0,0.0,-0.4399999976158142,0.23000000417232513,-0.0032724919728934765,0.0,1.0,0.175262451171875,-0.0,1726473754.257325,0.5659810130333323,-0.6926238061366725,-2.4207317600733536
143.0207061767578,0.0,0.0,-0.4399999976158142,0.23000000417232513,-0.0032724919728934765,0.0,1.0,0.175262451171875,-0.0,1726473754.2674458,0.5659673180035564,-0.6926204070867698,-2.420642625004976
143.0207061767578,0.0,0.0,-0.4399999976158142,0.23000000417232513,-0.0032724919728934765,0.0,1.0,0.175262451171875,-0.0,1726473754.2775383,0.5659701103396307,-0.6926203914885687,-2.4208227869172463
143.0207061767578,0.0,0.0,-0.4399999976158142,0.23000000417232513,-0.0032724919728934765,0.0,1.0,0.175262451171875,-0.0,1726473754.2876036,0.5659707578067023,-0.6926161231677727,-2.420749648713576
143.0207061767578,0.0,0.0,-0.4399999976158142,0.23000000417232513,-0.0032724919728934765,0.0,1.0,0.175262451171875,-0.0,1726473754.2975965,0.5659781122871366,-0.6926148470637733,-2.4206458376814495
143.0207061767578,0.0,0.0,-0.4399999976158142,0.23000000417232513,-0.0032724919728934765,0.0,1.0,0.175262451171875,-0.0,1726473754.3076138,0.5659581658460012,-0.6926169527125562,-2.4207714771318853
143.11981201171875,0.0,0.0,-0.38999998569488525,0.28999999165534973,-0.001090830541215837,0.0,1.0,0.2474365234375,-0.0,1726473754.3172827,0.5659780331688715,-0.6926271396278085,-2.420756375334782
143.11981201171875,0.0,0.0,-0.38999998569488525,0.28999999165534973,-0.001090830541215837,0.0,1.0,0.2474365234375,-0.0,1726473754.3274658,0.5659816184795932,-0.6926271576719564,-2.420679488536788
143.11981201171875,0.0,0.0,-0.38999998569488525,0.28999999165534973,-0.001090830541215837,0.0,1.0,0.2474365234375,-0.0,1726473754.3377867,0.5659659871322784,-0.6926350669750417,-2.4209268396990242
143.11981201171875,0.0,0.0,-0.38999998569488525,0.28999999165534973,-0.001090830541215837,0.0,1.0,0.2474365234375,-0.0,1726473754.3471775,0.5657728611006668,-0.6926846933232294,-2.4224154086146985
143.11981201171875,0.0,0.0,-0.38999998569488525,0.28999999165534973,-0.001090830541215837,0.0,1.0,0.2474365234375,-0.0,1726473754.357709,0.5652508360425348,-0.6931381867601499,-2.4231607442450764
143.11981201171875,0.0,0.0,-0.38999998569488525,0.28999999165534973,-0.001090830541215837,0.0,1.0,0.2474365234375,-0.0,1726473754.3685017,0.5646460891826734,-0.6936232885006822,-2.4230928497239
143.11981201171875,0.0,0.0,-0.38999998569488525,0.28999999165534973,-0.001090830541215837,0.0,1.0,0.2474365234375,-0.0,1726473754.377488,0.5641751735828414,-0.6940840752848892,-2.4228315392190627
143.11981201171875,0.0,0.0,-0.38999998569488525,0.28999999165534973,-0.001090830541215837,0.0,1.0,0.2474365234375,-0.0,1726473754.3874273,0.5636742554513005,-0.6945977741754156,-2.42221527827677
143.11981201171875,0.0,0.0,-0.38999998569488525,0.28999999165534973,-0.001090830541215837,0.0,1.0,0.2474365234375,-0.0,1726473754.3974042,0.56305537442845,-0.6951921701054984,-2.4211566831728395
143.11981201171875,0.0,0.0,-0.38999998569488525,0.28999999165534973,-0.001090830541215837,0.0,1.0,0.2474365234375,-0.0,1726473754.4076443,0.5624107778873662,-0.6959717556832778,-2.4211792121330546
143.11981201171875,0.0,0.0,-0.38999998569488525,0.28999999165534973,-0.001090830541215837,0.0,1.0,0.2474365234375,-0.0,1726473754.4177125,0.5617697448717531,-0.6966378836109512,-2.4218942840955466
143.22329711914062,0.0,0.0,-0.019999999552965164,0.5600000023841858,0.02508910372853279,0.12381239980459213,1.0,0.2474365234375,-0.0,1726473754.4274955,0.5610348079411134,-0.6971894809540427,-2.4216329623966426
143.22329711914062,0.0,0.0,-0.019999999552965164,0.5600000023841858,0.02508910372853279,0.12381239980459213,1.0,0.2474365234375,-0.0,1726473754.4382706,0.5601218678417907,-0.6978855259490847,-2.421026292929671
143.22329711914062,0.0,0.0,-0.019999999552965164,0.5600000023841858,0.02508910372853279,0.12381239980459213,1.0,0.2474365234375,-0.0,1726473754.4477334,0.5592328929024878,-0.698636140565753,-2.4205666075048127
143.22329711914062,0.0,0.0,-0.019999999552965164,0.5600000023841858,0.02508910372853279,0.12381239980459213,1.0,0.2474365234375,-0.0,1726473754.4574094,0.5583964685975445,-0.6993767983080615,-2.421291919604563
143.22329711914062,0.0,0.0,-0.019999999552965164,0.5600000023841858,0.02508910372853279,0.12381239980459213,1.0,0.2474365234375,-0.0,1726473754.4676502,0.5574453354035013,-0.7002648443142284,-2.420663549049742
143.22329711914062,0.0,0.0,-0.019999999552965164,0.5600000023841858,0.02508910372853279,0.12381239980459213,1.0,0.2474365234375,-0.0,1726473754.4774206,0.5565380050522929,-0.7011342715927528,-2.4207896466966417
143.22329711914062,0.0,0.0,-0.019999999552965164,0.5600000023841858,0.02508910372853279,0.12381239980459213,1.0,0.2474365234375,-0.0,1726473754.4874938,0.5556005230389347,-0.7020757675427485,-2.422714305526797
143.22329711914062,0.0,0.0,-0.019999999552965164,0.5600000023841858,0.02508910372853279,0.12381239980459213,1.0,0.2474365234375,-0.0,1726473754.4976568,0.5545623116067835,-0.7029910494091745,-2.4212515818752807
143.22329711914062,0.0,0.0,-0.019999999552965164,0.5600000023841858,0.02508910372853279,0.12381239980459213,1.0,0.2474365234375,-0.0,1726473754.5074756,0.5534439726919281,-0.7039359016332745,-2.4197280716671674
143.31964111328125,0.0,0.0,0.5899999737739563,-0.05999999865889549,-0.002181661082431674,0.12381239980459213,1.0,0.2474365234375,-0.0,1726473754.5178392,0.5523743928366304,-0.7049286177869525,-2.420468395343668
143.31964111328125,0.0,0.0,0.5899999737739563,-0.05999999865889549,-0.002181661082431674,0.12381239980459213,1.0,0.2474365234375,-0.0,1726473754.5276382,0.5512772600832455,-0.7059225513307353,-2.4214179078802274
143.31964111328125,0.0,0.0,0.5899999737739563,-0.05999999865889549,-0.002181661082431674,0.12381239980459213,1.0,0.2474365234375,-0.0,1726473754.5378075,0.5500752359241672,-0.707027340876327,-2.4198900584237975
143.31964111328125,0.0,0.0,0.5899999737739563,-0.05999999865889549,-0.002181661082431674,0.12381239980459213,1.0,0.2474365234375,-0.0,1726473754.5476367,0.5488818241599612,-0.7081020610692815,-2.4197018657638734
143.31964111328125,0.0,0.0,0.5899999737739563,-0.05999999865889549,-0.002181661082431674,0.12381239980459213,1.0,0.2474365234375,-0.0,1726473754.5572405,0.5476997167905379,-0.7091153151335841,-2.4197176870795394
143.31964111328125,0.0,0.0,0.5899999737739563,-0.05999999865889549,-0.002181661082431674,0.12381239980459213,1.0,0.2474365234375,-0.0,1726473754.5676432,0.5464103974834362,-0.7103622963402255,-2.4197989465111625
143.31964111328125,0.0,0.0,0.5899999737739563,-0.05999999865889549,-0.002181661082431674,0.12381239980459213,1.0,0.2474365234375,-0.0,1726473754.5770504,0.5451876927120367,-0.7114753495446491,-2.418713974680537
143.31964111328125,0.0,0.0,0.5899999737739563,-0.05999999865889549,-0.002181661082431674,0.12381239980459213,1.0,0.2474365234375,-0.0,1726473754.5876381,0.5438630624767169,-0.712596965829216,-2.418192181770794
143.31964111328125,0.0,0.0,0.5899999737739563,-0.05999999865889549,-0.002181661082431674,0.12381239980459213,1.0,0.2474365234375,-0.0,1726473754.5975428,0.5424212236421382,-0.7138652342318312,-2.418888684363913
143.31964111328125,0.0,0.0,0.5899999737739563,-0.05999999865889549,-0.002181661082431674,0.12381239980459213,1.0,0.2474365234375,-0.0,1726473754.607467,0.5410886454239394,-0.7150888325580856,-2.417537071807996
143.4202117919922,0.0,0.0,0.05999999865889549,0.44999998807907104,0.030543256551027298,0.16508319973945618,1.0,0.2474365234375,-0.0,1726473754.6169093,0.5396518162032627,-0.7162521472552128,-2.4168732451968924
143.4202117919922,0.0,0.0,0.05999999865889549,0.44999998807907104,0.030543256551027298,0.16508319973945618,1.0,0.2474365234375,-0.0,1726473754.627555,0.5382723033914728,-0.7174836713021169,-2.4166393825936785
143.4202117919922,0.0,0.0,0.05999999865889549,0.44999998807907104,0.030543256551027298,0.16508319973945618,1.0,0.2474365234375,-0.0,1726473754.6371188,0.536704301819413,-0.7188880865143826,-2.41754454865001
143.4202117919922,0.0,0.0,0.05999999865889549,0.44999998807907104,0.030543256551027298,0.16508319973945618,1.0,0.2474365234375,-0.0,1726473754.6472795,0.5352757293274225,-0.7201873564795984,-2.417211991001259
143.4202117919922,0.0,0.0,0.05999999865889549,0.44999998807907104,0.030543256551027298,0.16508319973945618,1.0,0.2474365234375,-0.0,1726473754.6572351,0.533832142724598,-0.7215106112862141,-2.4171234702748654
143.4202117919922,0.0,0.0,0.05999999865889549,0.44999998807907104,0.030543256551027298,0.16508319973945618,1.0,0.2474365234375,-0.0,1726473754.6671395,0.5321822736318367,-0.7229996565053823,-2.416413738627732
143.4202117919922,0.0,0.0,0.05999999865889549,0.44999998807907104,0.030543256551027298,0.16508319973945618,1.0,0.2474365234375,-0.0,1726473754.67743,0.5306854817114559,-0.7244518620558286,-2.4152090263069446
143.4202117919922,0.0,0.0,0.05999999865889549,0.44999998807907104,0.030543256551027298,0.16508319973945618,1.0,0.2474365234375,-0.0,1726473754.6871245,0.5290936328430469,-0.7259359846505983,-2.4148173136470676
143.4202117919922,0.0,0.0,0.05999999865889549,0.44999998807907104,0.030543256551027298,0.16508319973945618,1.0,0.2474365234375,-0.0,1726473754.6971455,0.5276329376488896,-0.7273818749480594,-2.416805839117365
143.4202117919922,0.0,0.0,0.05999999865889549,0.44999998807907104,0.030543256551027298,0.16508319973945618,1.0,0.2474365234375,-0.0,1726473754.707137,0.5259857931449112,-0.7287430973007667,-2.4167219383464627
143.51710510253906,0.0,0.0,-0.6700000166893005,0.6000000238418579,0.03817906975746155,0.20635399222373962,1.0,0.23712158203125,-0.0,1726473754.71721,0.5244592102801978,-0.7303362392635521,-2.416310409655491
143.51710510253906,0.0,0.0,-0.6700000166893005,0.6000000238418579,0.03817906975746155,0.20635399222373962,1.0,0.23712158203125,-0.0,1726473754.7270355,0.522678802618181,-0.7318874633969104,-2.417115156096493
143.51710510253906,0.0,0.0,-0.6700000166893005,0.6000000238418579,0.03817906975746155,0.20635399222373962,1.0,0.23712158203125,-0.0,1726473754.7371411,0.5209703991041065,-0.7334103874118951,-2.415353449480205
143.51710510253906,0.0,0.0,-0.6700000166893005,0.6000000238418579,0.03817906975746155,0.20635399222373962,1.0,0.23712158203125,-0.0,1726473754.7473953,0.519278755663532,-0.735061928286882,-2.415638155680985
143.51710510253906,0.0,0.0,-0.6700000166893005,0.6000000238418579,0.03817906975746155,0.20635399222373962,1.0,0.23712158203125,-0.0,1726473754.757275,0.5176210483025528,-0.7364999664757886,-2.4163812261362585
143.51710510253906,0.0,0.0,-0.6700000166893005,0.6000000238418579,0.03817906975746155,0.20635399222373962,1.0,0.23712158203125,-0.0,1726473754.767587,0.5157583613034256,-0.7380708767774851,-2.414732240816006
143.51710510253906,0.0,0.0,-0.6700000166893005,0.6000000238418579,0.03817906975746155,0.20635399222373962,1.0,0.23712158203125,-0.0,1726473754.777532,0.5140088563903222,-0.7396668977757863,-2.416160116325656
143.51710510253906,0.0,0.0,-0.6700000166893005,0.6000000238418579,0.03817906975746155,0.20635399222373962,1.0,0.23712158203125,-0.0,1726473754.7875986,0.512338746748865,-0.7411657035345137,-2.414540600109413
143.51710510253906,0.0,0.0,-0.6700000166893005,0.6000000238418579,0.03817906975746155,0.20635399222373962,1.0,0.23712158203125,-0.0,1726473754.797661,0.5105689350936816,-0.7428276649402681,-2.4146967827452115
143.51710510253906,0.0,0.0,-0.6700000166893005,0.6000000238418579,0.03817906975746155,0.20635399222373962,1.0,0.23712158203125,-0.0,1726473754.8075833,0.5086632150702027,-0.7444514485631115,-2.415266591301596
143.6180877685547,0.0,0.0,-1.0099999904632568,0.7300000190734863,0.021816611289978027,0.24762479960918427,1.0,0.23712158203125,-0.0,1726473754.8176713,0.5067960190389118,-0.7460453562926884,-2.415178512939632
143.6180877685547,0.0,0.0,-1.0099999904632568,0.7300000190734863,0.021816611289978027,0.24762479960918427,1.0,0.23712158203125,-0.0,1726473754.8275528,0.5050247994948195,-0.7478092446375979,-2.4154469472184306
143.6180877685547,0.0,0.0,-1.0099999904632568,0.7300000190734863,0.021816611289978027,0.24762479960918427,1.0,0.23712158203125,-0.0,1726473754.8377626,0.5032199633347862,-0.7494374098201829,-2.415043692277522
143.6180877685547,0.0,0.0,-1.0099999904632568,0.7300000190734863,0.021816611289978027,0.24762479960918427,1.0,0.23712158203125,-0.0,1726473754.8476431,0.50129521616802,-0.7512949411487818,-2.4157890580404784
143.6180877685547,0.0,0.0,-1.0099999904632568,0.7300000190734863,0.021816611289978027,0.24762479960918427,1.0,0.23712158203125,-0.0,1726473754.8572726,0.4994729832613897,-0.7531134996576155,-2.4151884393912604
143.6180877685547,0.0,0.0,-1.0099999904632568,0.7300000190734863,0.021816611289978027,0.24762479960918427,1.0,0.23712158203125,-0.0,1726473754.8676703,0.49761063089518803,-0.7549107956202115,-2.4151206884119154
143.6180877685547,0.0,0.0,-1.0099999904632568,0.7300000190734863,0.021816611289978027,0.24762479960918427,1.0,0.23712158203125,-0.0,1726473754.8775811,0.4955982459602748,-0.7565266230078878,-2.4152120192925106
143.6180877685547,0.0,0.0,-1.0099999904632568,0.7300000190734863,0.021816611289978027,0.24762479960918427,1.0,0.23712158203125,-0.0,1726473754.8874793,0.49373583220679834,-0.7584175444439843,-2.413988924581008
143.6180877685547,0.0,0.0,-1.0099999904632568,0.7300000190734863,0.021816611289978027,0.24762479960918427,1.0,0.23712158203125,-0.0,1726473754.8975775,0.4917166066098969,-0.7602477960996629,-2.414556031135954
143.6180877685547,0.0,0.0,-1.0099999904632568,0.7300000190734863,0.021816611289978027,0.24762479960918427,1.0,0.23712158203125,-0.0,1726473754.9076874,0.48969925892069627,-0.7620563499011158,-2.413791377372083
143.7165985107422,0.0,0.0,0.9399999976158142,1.5099999904632568,0.0229074414819479,0.24762479960918427,1.0,0.23712158203125,-0.0,1726473754.9176955,0.4876497595801397,-0.763874848672064,-2.4136348341256486
143.7165985107422,0.0,0.0,0.9399999976158142,1.5099999904632568,0.0229074414819479,0.24762479960918427,1.0,0.23712158203125,-0.0,1726473754.927569,0.4856280608184833,-0.7658559074670774,-2.4139928163686974
143.7165985107422,0.0,0.0,0.9399999976158142,1.5099999904632568,0.0229074414819479,0.24762479960918427,1.0,0.23712158203125,-0.0,1726473754.9375572,0.4835861967388905,-0.7677915605318139,-2.4117838129439217
143.7165985107422,0.0,0.0,0.9399999976158142,1.5099999904632568,0.0229074414819479,0.24762479960918427,1.0,0.23712158203125,-0.0,1726473754.9478652,0.48144873290326684,-0.769746817013652,-2.412404556839562
143.7165985107422,0.0,0.0,0.9399999976158142,1.5099999904632568,0.0229074414819479,0.24762479960918427,1.0,0.23712158203125,-0.0,1726473754.9576466,0.47952502634135435,-0.7716535288138953,-2.4114990693553557
143.7165985107422,0.0,0.0,0.9399999976158142,1.5099999904632568,0.0229074414819479,0.24762479960918427,1.0,0.23712158203125,-0.0,1726473754.9679751,0.47728504631992463,-0.7735063919101758,-2.411808299469848
143.7165985107422,0.0,0.0,0.9399999976158142,1.5099999904632568,0.0229074414819479,0.24762479960918427,1.0,0.23712158203125,-0.0,1726473754.9775443,0.47512638827248016,-0.7754097271523626,-2.4092563612833247
143.7165985107422,0.0,0.0,0.9399999976158142,1.5099999904632568,0.0229074414819479,0.24762479960918427,1.0,0.23712158203125,-0.0,1726473754.9874747,0.4730430102796485,-0.777327978635601,-2.41033189305105
143.7165985107422,0.0,0.0,0.9399999976158142,1.5099999904632568,0.0229074414819479,0.24762479960918427,1.0,0.23712158203125,-0.0,1726473754.9975996,0.4708252818824153,-0.779269626604912,-2.409217438821221
143.7165985107422,0.0,0.0,0.9399999976158142,1.5099999904632568,0.0229074414819479,0.24762479960918427,1.0,0.23712158203125,-0.0,1726473755.0075192,0.4686349298127924,-0.7813257516665578,-2.4098276196317876
143.81619262695312,0.0,0.0,-1.4600000381469727,1.340000033378601,0.06544983386993408,0.24762479960918427,1.0,0.23712158203125,-0.0,1726473755.0175896,0.4664518807907362,-0.7834316440544612,-2.410293404860195
143.81619262695312,0.0,0.0,-1.4600000381469727,1.340000033378601,0.06544983386993408,0.24762479960918427,1.0,0.23712158203125,-0.0,1726473755.0276937,0.4643609820540602,-0.7854813885654459,-2.4098798273985644
143.81619262695312,0.0,0.0,-1.4600000381469727,1.340000033378601,0.06544983386993408,0.24762479960918427,1.0,0.23712158203125,-0.0,1726473755.037502,0.46222941241016513,-0.7875682217065483,-2.410144785635267
143.81619262695312,0.0,0.0,-1.4600000381469727,1.340000033378601,0.06544983386993408,0.24762479960918427,1.0,0.23712158203125,-0.0,1726473755.0476673,0.4597642896244899,-0.7897631551442502,-2.410791251226947
143.81619262695312,0.0,0.0,-1.4600000381469727,1.340000033378601,0.06544983386993408,0.24762479960918427,1.0,0.23712158203125,-0.0,1726473755.0571647,0.4576449353059232,-0.7917980937665364,-2.4083976853782634
143.81619262695312,0.0,0.0,-1.4600000381469727,1.340000033378601,0.06544983386993408,0.24762479960918427,1.0,0.23712158203125,-0.0,1726473755.0677497,0.4552371602486466,-0.7938450824239017,-2.410135341692651
143.81619262695312,0.0,0.0,-1.4600000381469727,1.340000033378601,0.06544983386993408,0.24762479960918427,1.0,0.23712158203125,-0.0,1726473755.0774932,0.45293980511904425,-0.7960104979060716,-2.408676661623093
143.81619262695312,0.0,0.0,-1.4600000381469727,1.340000033378601,0.06544983386993408,0.24762479960918427,1.0,0.23712158203125,-0.0,1726473755.0875692,0.45063398704013186,-0.7982112621679704,-2.409901361648174
143.81619262695312,0.0,0.0,-1.4600000381469727,1.340000033378601,0.06544983386993408,0.24762479960918427,1.0,0.23712158203125,-0.0,1726473755.097457,0.4483038784839549,-0.8003040692943524,-2.409778847821086
143.81619262695312,0.0,0.0,-1.4600000381469727,1.340000033378601,0.06544983386993408,0.24762479960918427,1.0,0.23712158203125,-0.0,1726473755.1079574,0.44597595235680026,-0.8025532791037906,-2.409457941341565
143.91641235351562,0.0,0.0,-0.12999999523162842,0.7099999785423279,-0.008726644329726696,0.33016639947891235,1.0,0.23712158203125,-0.0,1726473755.1181858,0.443647354381837,-0.8047470960489996,-2.408812662618106
143.91641235351562,0.0,0.0,-0.12999999523162842,0.7099999785423279,-0.008726644329726696,0.33016639947891235,1.0,0.23712158203125,-0.0,1726473755.1280103,0.4412629497220029,-0.8069924379197547,-2.408188153023126
143.91641235351562,0.0,0.0,-0.12999999523162842,0.7099999785423279,-0.008726644329726696,0.33016639947891235,1.0,0.23712158203125,-0.0,1726473755.1385074,0.43884480870076276,-0.8092256469216591,-2.4051695711489622
143.91641235351562,0.0,0.0,-0.12999999523162842,0.7099999785423279,-0.008726644329726696,0.33016639947891235,1.0,0.23712158203125,-0.0,1726473755.1477914,0.436429465718225,-0.8113976993549752,-2.405780587844994
143.91641235351562,0.0,0.0,-0.12999999523162842,0.7099999785423279,-0.008726644329726696,0.33016639947891235,1.0,0.23712158203125,-0.0,1726473755.1580267,0.4339988458856322,-0.8135733692412924,-2.405718183007435
143.91641235351562,0.0,0.0,-0.12999999523162842,0.7099999785423279,-0.008726644329726696,0.33016639947891235,1.0,0.23712158203125,-0.0,1726473755.1675978,0.4314781445918905,-0.8158033727380275,-2.4039009152622928
143.91641235351562,0.0,0.0,-0.12999999523162842,0.7099999785423279,-0.008726644329726696,0.33016639947891235,1.0,0.23712158203125,-0.0,1726473755.1776042,0.4289986693735197,-0.8180505427817196,-2.404486228507446
143.91641235351562,0.0,0.0,-0.12999999523162842,0.7099999785423279,-0.008726644329726696,0.33016639947891235,1.0,0.23712158203125,-0.0,1726473755.1875317,0.4265039023024844,-0.8203392372176022,-2.4042085282647556
143.91641235351562,0.0,0.0,-0.12999999523162842,0.7099999785423279,-0.008726644329726696,0.33016639947891235,1.0,0.23712158203125,-0.0,1726473755.1976986,0.42408504228413685,-0.8226919277899921,-2.404145790236863
143.91641235351562,0.0,0.0,-0.12999999523162842,0.7099999785423279,-0.008726644329726696,0.33016639947891235,1.0,0.23712158203125,-0.0,1726473755.2078824,0.4216910733414527,-0.8249674534829783,-2.403886586302593
144.01341247558594,0.0,0.0,-1.4199999570846558,1.0299999713897705,0.019634950906038284,0.33016639947891235,1.0,0.23712158203125,-0.0,1726473755.2176995,0.4191767262878437,-0.8271897133280658,-2.4035276169207527
144.01341247558594,0.0,0.0,-1.4199999570846558,1.0299999713897705,0.019634950906038284,0.33016639947891235,1.0,0.23712158203125,-0.0,1726473755.2281737,0.41684125001586514,-0.8295492250788952,-2.4032571031972143
144.01341247558594,0.0,0.0,-1.4199999570846558,1.0299999713897705,0.019634950906038284,0.33016639947891235,1.0,0.23712158203125,-0.0,1726473755.238021,0.4142603167838281,-0.8318892012080077,-2.4037621716339608
144.01341247558594,0.0,0.0,-1.4199999570846558,1.0299999713897705,0.019634950906038284,0.33016639947891235,1.0,0.23712158203125,-0.0,1726473755.2473004,0.4118479331977137,-0.8342957489435517,-2.4042681563348514
144.01341247558594,0.0,0.0,-1.4199999570846558,1.0299999713897705,0.019634950906038284,0.33016639947891235,1.0,0.23712158203125,-0.0,1726473755.2575185,0.4093342380431656,-0.8366926305423558,-2.403643100025554
144.01341247558594,0.0,0.0,-1.4199999570846558,1.0299999713897705,0.019634950906038284,0.33016639947891235,1.0,0.23712158203125,-0.0,1726473755.267491,0.40688773312005516,-0.8390409608888002,-2.4020231015026563
144.01341247558594,0.0,0.0,-1.4199999570846558,1.0299999713897705,0.019634950906038284,0.33016639947891235,1.0,0.23712158203125,-0.0,1726473755.2773218,0.40433419501458767,-0.8413678148080895,-2.4029692409820482
144.01341247558594,0.0,0.0,-1.4199999570846558,1.0299999713897705,0.019634950906038284,0.33016639947891235,1.0,0.23712158203125,-0.0,1726473755.2874699,0.40182886830445047,-0.8437123262770255,-2.4011735995202863
144.01341247558594,0.0,0.0,-1.4199999570846558,1.0299999713897705,0.019634950906038284,0.33016639947891235,1.0,0.23712158203125,-0.0,1726473755.2975063,0.39922028865522186,-0.8460495685757043,-2.402584926761842
144.01341247558594,0.0,0.0,-1.4199999570846558,1.0299999713897705,0.019634950906038284,0.33016639947891235,1.0,0.23712158203125,-0.0,1726473755.3080552,0.3967195649139646,-0.8483600955735788,-2.402105517465777
144.11427307128906,0.0,0.0,-0.5099999904632568,-0.5,0.051269035786390305,0.33016639947891235,1.0,0.23712158203125,-0.0,1726473755.3182561,0.3941853838346599,-0.8507196372553402,-2.4030542605850003
144.11427307128906,0.0,0.0,-0.5099999904632568,-0.5,0.051269035786390305,0.33016639947891235,1.0,0.23712158203125,-0.0,1726473755.3279455,0.39152035001732466,-0.8532301134415137,-2.4041616144564415
